Time	Channel A	Channel B	Channel C
(us)	(V)	(mV)	(mV)

-4.49999956	0.00000000	78.22342000	23.68356000
-4.29999957	0.00000000	77.85432000	23.68356000
-4.09999958	0.00000000	77.52214000	23.68356000
-3.89999959	0.00000000	77.47908000	23.68356000
-3.69999960	0.00000000	77.47908000	23.68356000
-3.49999962	0.00000000	77.47908000	23.68356000
-3.29999963	0.00000000	77.47908000	23.68356000
-3.09999964	0.00000000	77.52214000	23.68356000
-2.89999965	0.00000000	77.85432000	23.68356000
-2.69999966	0.00000000	78.22342000	23.68356000
-2.49999968	0.00000000	77.89738000	23.68356000
-2.29999969	0.00000000	77.89738000	23.72662000
-2.09999970	0.00000000	78.22342000	24.05881000
-1.89999971	0.00000000	77.85432000	24.42790000
-1.69999972	0.00000000	77.52214000	24.05881000
-1.49999973	0.00000000	77.47908000	23.72662000
-1.29999975	0.00000000	77.52214000	23.72662000
-1.09999976	0.00000000	77.89738000	24.05881000
-0.89999977	0.00000000	78.59251000	24.42790000
-0.69999978	0.00000000	78.59251000	24.05881000
-0.49999979	0.00000000	77.89738000	23.72662000
-0.29999981	0.15871060	77.52214000	23.68356000
-0.09999982	0.63668800	77.47908000	23.68356000
0.10000017	0.95533960	77.47908000	23.68356000
0.30000016	0.95533960	77.47908000	23.64050000
0.50000015	0.95533960	77.47908000	23.26525000
0.70000013	0.47736220	77.47908000	22.57013000
0.90000012	-0.31803640	77.47908000	22.57013000
1.10000011	-1.27399100	77.47908000	23.26525000
1.30000010	-2.22994600	77.47908000	23.64050000
1.50000009	-2.70792300	77.47908000	23.68356000
1.70000008	-2.54859700	77.47908000	23.68356000
1.90000006	-1.59264300	77.47908000	23.72662000
2.10000005	0.15871060	77.47908000	24.05881000
2.30000004	2.22994600	77.47908000	24.42790000
2.50000003	4.14124000	77.47908000	24.05881000
2.70000002	5.25652100	77.47908000	23.72662000
2.90000000	5.09719500	77.47908000	23.68356000
3.09999999	3.50393700	77.47908000	23.68356000
3.29999998	0.63668800	77.47908000	23.68356000
3.49999997	-2.86724900	77.47908000	23.68356000
3.69999996	-5.89382400	77.47908000	23.68356000
3.89999994	-7.80511800	77.47908000	23.72662000
4.09999993	-7.64579200	77.52214000	24.10187000
4.29999992	-5.57517200	77.85432000	24.84621000
4.49999991	-1.91129400	78.22342000	25.17224000
4.69999990	2.38927200	77.85432000	24.84621000
4.89999989	6.53112700	77.52214000	24.10187000
5.09999987	8.92039900	77.47908000	23.72662000
5.29999986	9.39837600	77.47908000	23.64050000
5.49999985	7.16781500	77.47908000	23.26525000
5.69999984	3.34522600	77.47908000	22.57013000
5.89999983	-1.43331700	77.47908000	22.57013000
6.09999981	-5.73449800	77.47908000	23.26525000
6.29999980	-8.76107300	77.52214000	23.64050000
6.49999979	-9.39837600	77.85432000	23.68356000
6.69999978	-7.80511800	78.22342000	23.72662000
6.89999977	-4.30056600	77.85432000	24.05881000
7.09999975	0.00000000	77.57135000	24.42790000
7.29999974	4.14124000	77.85432000	24.05881000
7.49999973	6.84916400	78.22342000	23.72662000
7.69999972	7.80511800	77.85432000	23.68356000
7.89999971	6.69045300	77.52214000	23.64050000
8.09999970	4.14124000	77.47908000	23.30832000
8.29999968	0.79601380	77.52214000	22.93922000
8.49999967	-2.22994600	77.85432000	23.30832000
8.69999966	-4.45989200	78.22342000	23.59129000
8.89999965	-5.25652100	77.85432000	23.30832000
9.09999964	-4.61921700	77.52214000	22.93922000
9.29999962	-3.02657500	77.47908000	23.30832000
9.49999961	-1.11466500	77.47908000	23.64050000
9.69999960	0.79601380	77.47908000	23.68356000
9.89999959	2.07062000	77.47908000	23.68356000
10.09999958	2.54859700	77.47908000	23.64050000
10.29999956	2.38927200	77.47908000	23.30832000
10.49999955	1.59264300	77.47908000	22.93922000
10.69999954	0.79601380	77.47908000	23.30832000
10.89999953	0.00000000	77.47908000	23.64050000
11.09999952	-0.63668800	77.47908000	23.68356000
11.29999951	-0.95533960	77.47908000	23.68356000
11.49999949	-0.95533960	77.47908000	23.68356000
11.69999948	-0.79601380	77.47908000	23.68356000
11.89999947	-0.47736220	77.47908000	23.68356000
12.09999946	-0.15871060	77.47908000	23.68356000
12.29999945	-0.15871060	77.47908000	23.68356000
12.49999943	-0.15871060	77.47908000	23.68356000
12.69999942	0.00000000	77.47908000	23.68356000
12.89999941	0.00000000	77.47908000	23.68356000
13.09999940	0.00000000	77.47908000	23.68356000
13.29999939	0.15871060	77.47908000	23.68356000
13.49999937	0.00000000	77.47908000	23.68356000
13.69999936	0.00000000	77.47908000	23.72662000
13.89999935	0.00000000	77.47908000	24.05881000
14.09999934	-0.15871060	77.47908000	24.42790000
14.29999933	-0.15871060	77.47908000	24.05881000
14.49999932	-0.15871060	77.47908000	23.72662000
14.69999930	0.00000000	77.47908000	23.68356000
14.89999929	0.00000000	77.47908000	23.68356000
15.09999928	0.00000000	77.47908000	23.68356000
15.29999927	0.00000000	77.47908000	23.68356000
15.49999926	0.00000000	77.47908000	23.68356000
15.69999924	0.00000000	77.47908000	23.68356000
15.89999923	0.00000000	77.47908000	23.68356000
16.09999922	0.00000000	77.47908000	23.68356000
16.29999921	0.00000000	77.47908000	23.68356000
16.49999920	0.00000000	77.47908000	23.68356000
16.69999919	-0.15871060	77.52214000	23.68356000
16.89999917	0.00000000	77.94660000	23.68356000
17.09999916	0.00000000	79.01697000	23.68356000
17.29999915	0.00000000	79.75516000	23.68356000
17.49999914	0.00000000	79.43528000	23.68356000
17.69999913	0.00000000	79.10310000	23.68356000
17.89999911	0.00000000	79.01697000	23.68356000
18.09999910	0.00000000	78.59251000	23.68356000
18.29999909	0.00000000	77.38681000	23.68356000
18.49999908	0.00000000	75.52288000	23.68356000
18.69999907	0.00000000	73.57283000	23.68356000
18.89999905	0.00000000	72.45324000	23.68356000
19.09999904	0.00000000	72.08414000	23.68356000
19.29999903	0.00000000	73.28986000	23.68356000
19.49999902	0.00000000	75.94118000	23.68356000
19.69999901	0.00000000	79.10310000	23.68356000
19.89999900	0.00000000	82.64025000	23.64050000
20.09999898	0.00000000	86.45423000	23.30832000
20.29999897	0.00000000	89.06249000	22.93922000
20.49999896	0.00000000	89.01943000	23.26525000
20.69999895	0.00000000	85.90058000	23.26525000
20.89999894	0.00000000	80.08734000	22.93922000
21.09999892	0.00000000	72.73621000	23.30832000
21.29999891	0.00000000	65.37893000	23.59129000
21.49999890	0.00000000	59.60876000	23.30832000
21.69999889	0.00000000	56.95743000	22.93922000
21.89999888	0.00000000	58.63066000	23.30832000
22.09999886	0.00000000	65.23744000	23.64050000
22.29999885	0.00000000	76.07652000	23.64050000
22.49999884	0.00000000	88.45964000	23.30832000
22.69999883	0.00000000	99.99999000	22.89616000
22.89999882	0.00000000	107.62790000	22.93307000
23.09999881	0.00000000	108.37840000	22.93922000
23.29999879	0.00000000	102.14070000	23.72662000
23.49999878	0.00000000	89.67150000	24.79700000
23.69999877	0.00000000	72.64394000	25.22145000
23.89999876	0.00000000	54.95816000	25.26452000
24.09999875	0.00000000	41.09252000	25.22145000
24.29999873	0.00000000	34.94709000	24.84621000
24.49999872	0.00000000	38.11516000	24.05881000
24.69999871	0.00000000	50.58440000	23.21604000
24.89999870	0.00000000	70.63853000	21.64124000
25.09999869	0.00000000	93.38705000	19.40822000
25.29999867	0.00000000	113.07210000	17.87647000
25.49999866	0.00000000	125.39980000	17.50123000
25.69999865	0.00000000	126.88850000	18.29478000
25.89999864	0.00000000	116.84300000	20.66314000
26.09999863	0.00000000	97.53321000	24.10187000
26.29999862	0.00000000	73.19759000	28.00197000
26.49999860	0.00000000	49.65551000	31.48991000
26.69999859	0.00000000	32.25270000	34.13509000
26.89999858	0.00000000	24.90157000	34.83022000
27.09999857	0.00000000	29.17692000	32.46801000
27.29999856	0.00000000	44.25443000	27.44832000
27.49999854	0.00000000	67.00910000	20.47859000
27.69999853	0.00000000	91.67076000	13.13976000
27.89999852	0.00000000	112.23550000	6.95743000
28.09999851	0.00000000	124.61240000	3.14960600
28.29999850	0.00000000	126.56250000	3.27878900
28.49999848	0.00000000	117.35360000	8.34768700
28.69999847	0.00000000	99.99999000	18.01181000
28.89999846	0.00000000	78.72785000	29.95201000
29.09999845	0.00000000	57.84325000	41.52312000
29.29999844	0.00000000	42.34744000	49.98154000
29.49999843	0.00000000	34.90403000	53.05118000
29.69999841	0.00000000	36.44193000	49.93233000
29.89999840	0.00000000	46.44439000	40.96949000
30.09999839	0.00000000	62.26624000	27.39911000
30.29999838	0.00000000	80.08734000	11.60187000
30.49999837	0.00000000	96.32135000	-2.65748000
30.69999835	0.00000000	107.57870000	-11.86024000
30.89999834	0.00000000	111.54030000	-13.80413000
31.09999833	0.00000000	108.51380000	-7.58489100
31.29999832	0.00000000	99.58169000	5.14886800
31.49999831	0.00000000	86.45423000	22.19488000
31.69999829	0.00000000	72.17027000	39.94832000
31.89999828	0.00000000	60.11934000	54.63213000
32.09999827	0.00000000	52.34990000	63.08440000
32.29999826	0.00000000	49.98154000	63.08440000
32.49999825	0.00000000	53.46948000	54.58292000
32.69999824	0.00000000	61.52190000	39.53002000
32.89999822	0.00000000	72.40403000	20.98917000
33.09999821	0.00000000	83.57529000	3.24188000
33.29999820	0.00000000	92.87647000	-9.95324800
33.49999819	0.00000000	97.90231000	-16.12943000
33.69999818	0.00000000	97.95152000	-14.22244000
33.89999816	0.00000000	93.33784000	-4.56446800
34.09999815	0.00000000	85.29158000	10.49459000
34.29999814	0.00000000	76.40871000	27.90969000
34.49999813	0.00000000	68.63311000	44.08218000
34.69999812	0.00000000	63.23819000	55.27805000
34.89999810	0.00000000	61.70029000	58.81520000
35.09999809	0.00000000	64.35777000	54.63213000
35.29999808	0.00000000	70.08488000	44.17446000
35.49999807	0.00000000	77.01156000	29.53371000
35.69999806	0.00000000	83.15698000	14.11171000
35.89999805	0.00000000	87.06323000	1.79626000
36.09999803	0.00000000	87.85679000	-4.84128900
36.29999802	0.00000000	85.94365000	-4.47219400
36.49999801	0.00000000	81.66830000	2.03617100
36.69999800	0.00000000	75.94118000	13.22589000
36.89999799	0.00000000	70.58932000	26.24262000
37.09999797	0.00000000	67.47047000	37.39542000
37.29999796	0.00000000	67.05216000	43.57775000
37.49999795	0.00000000	69.00836000	43.66388000
37.69999794	0.00000000	73.24680000	38.23203000
37.89999793	0.00000000	78.54945000	28.69709000
38.09999791	0.00000000	82.83096000	17.64272000
38.29999790	0.00000000	85.20546000	9.59645700
38.49999789	0.00000000	85.99286000	6.39763700
38.69999788	0.00000000	84.78715000	7.92937900
38.89999787	0.00000000	81.71136000	13.73647000
39.09999786	0.00000000	77.47908000	22.57013000
39.29999784	0.00000000	73.24680000	32.09276000
39.49999783	0.00000000	70.12794000	38.92716000
39.69999782	0.00000000	68.54699000	40.50812000
39.89999781	0.00000000	68.54699000	36.69414000
40.09999780	0.00000000	70.04182000	28.98007000
40.29999778	0.00000000	72.45324000	18.98991000
40.49999777	0.00000000	75.57825000	9.46727400
40.69999776	0.00000000	79.80437000	3.74630900
40.89999775	0.00000000	83.20619000	3.70324800
41.09999774	0.00000000	84.87327000	9.04281500
41.29999772	0.00000000	85.24852000	17.87647000
41.49999771	0.00000000	84.45496000	27.90969000
41.69999770	0.00000000	82.12967000	36.74335000
41.89999769	0.00000000	79.06004000	42.08292000
42.09999768	0.00000000	75.89813000	42.13213000
42.29999767	0.00000000	72.82849000	37.20472000
42.49999765	0.00000000	70.50320000	29.49065000
42.69999764	0.00000000	69.70964000	20.61393000
42.89999763	0.00000000	70.08488000	12.53076000
43.09999762	0.00000000	71.62278000	7.51107200
43.29999761	0.00000000	73.94193000	6.35457700
43.49999759	0.00000000	76.27337000	9.41806000
43.69999758	0.00000000	78.59251000	15.92027000
43.89999757	0.00000000	80.13041000	23.54823000
44.09999756	0.00000000	80.59792000	30.09350000
44.29999755	0.00000000	80.64099000	33.63066000
44.49999753	0.00000000	80.64099000	34.14124000
44.69999752	0.00000000	80.64099000	32.60334000
44.89999751	0.00000000	80.64099000	29.53371000
45.09999750	0.00000000	80.59792000	25.63976000
45.29999749	0.00000000	80.13041000	21.77658000
45.49999748	0.00000000	78.54945000	18.29478000
45.69999746	0.00000000	75.85506000	16.43085000
45.89999745	0.00000000	72.77928000	16.71383000
46.09999744	0.00000000	69.99261000	18.61466000
46.29999743	0.00000000	67.70422000	20.90305000
46.49999742	0.00000000	66.22169000	23.26525000
46.69999740	0.00000000	67.09522000	25.21530000
46.89999739	0.00000000	70.54626000	26.79626000
47.09999738	0.00000000	75.99039000	27.90969000
47.29999737	0.00000000	82.17889000	27.86663000
47.49999736	0.00000000	87.94906000	26.37795000
47.69999734	0.00000000	91.80609000	24.05881000
47.89999733	0.00000000	92.55659000	21.77658000
48.09999732	0.00000000	90.17593000	19.78346000
48.29999731	0.00000000	84.31963000	18.61466000
48.49999730	0.00000000	75.84891000	17.87647000
48.69999729	0.00000000	67.00910000	18.33784000
48.89999727	0.00000000	60.11934000	20.61393000
49.09999726	0.00000000	57.33267000	23.68356000
49.29999725	0.00000000	58.90747000	26.75320000
49.49999724	0.00000000	63.98867000	29.07234000
49.69999723	0.00000000	72.87155000	29.86589000
49.89999721	0.00000000	82.83096000	29.44759000
50.09999720	0.00000000	90.92641000	27.49138000
50.29999719	0.00000000	95.57085000	24.01575000
50.49999718	0.00000000	95.15871000	20.19562000
50.69999717	0.00000000	90.22514000	16.71383000
50.89999715	0.00000000	82.08661000	14.80684000
51.09999714	0.00000000	72.87155000	14.80684000
51.29999713	0.00000000	64.77608000	16.76304000
51.49999712	0.00000000	60.16240000	20.57087000
51.69999711	0.00000000	60.11934000	24.79700000
51.89999710	0.00000000	64.35777000	28.32800000
52.09999708	0.00000000	71.61663000	31.02239000
52.29999707	0.00000000	79.71210000	32.09276000
52.49999706	0.00000000	86.27583000	30.60408000
52.69999705	0.00000000	90.13287000	27.17150000
52.89999704	0.00000000	90.08981000	23.30832000
53.09999702	0.00000000	85.94365000	19.45743000
53.29999701	0.00000000	79.43528000	16.80610000
53.49999700	0.00000000	72.87155000	16.33858000
53.69999699	0.00000000	67.47047000	17.45817000
53.89999698	0.00000000	64.81914000	19.40822000
54.09999696	0.00000000	65.88951000	22.10261000
54.29999695	0.00000000	69.70964000	24.75394000
54.49999694	0.00000000	74.73548000	26.32874000
54.69999693	0.00000000	80.13041000	26.70398000
54.89999692	0.00000000	84.31963000	25.91043000
55.09999691	0.00000000	85.85753000	23.68356000
55.29999689	0.00000000	84.36269000	21.45669000
55.49999688	0.00000000	80.54871000	20.66314000
55.69999687	0.00000000	75.94118000	20.98917000
55.89999686	0.00000000	71.66584000	22.19488000
56.09999685	0.00000000	68.59006000	24.10187000
56.29999683	0.00000000	67.42741000	26.37795000
56.49999682	0.00000000	68.63927000	27.86663000
56.69999681	0.00000000	72.04109000	27.82357000
56.89999680	0.00000000	76.64246000	25.86737000
57.09999679	0.00000000	80.46259000	22.05955000
57.29999677	0.00000000	82.83096000	17.87647000
57.49999676	0.00000000	83.20619000	14.80684000
57.69999675	0.00000000	81.75443000	13.69340000
57.89999674	0.00000000	79.39222000	15.22515000
58.09999673	0.00000000	76.68553000	19.08218000
58.29999672	0.00000000	73.62204000	24.10187000
58.49999670	0.00000000	71.75196000	29.53371000
58.69999669	0.00000000	71.66584000	34.09203000
58.89999668	0.00000000	72.77928000	36.32505000
59.09999667	0.00000000	74.31717000	34.78716000
59.29999666	0.00000000	75.89813000	29.77362000
59.49999664	0.00000000	77.43602000	22.89001000
59.69999663	0.00000000	78.54945000	15.55733000
59.89999662	0.00000000	78.59251000	10.20546000
60.09999661	0.00000000	77.85432000	7.83710600
60.29999660	0.00000000	77.06077000	9.04281500
60.49999658	0.00000000	75.89813000	13.69340000
60.69999657	0.00000000	74.82775000	21.03838000
60.89999656	0.00000000	74.82775000	29.44759000
61.09999655	0.00000000	75.94118000	36.36811000
61.29999654	0.00000000	77.43602000	39.85605000
61.49999653	0.00000000	78.59251000	39.43774000
61.69999651	0.00000000	78.96776000	34.83022000
61.89999650	0.00000000	78.59251000	27.17150000
62.09999649	0.00000000	77.43602000	19.03297000
62.29999648	0.00000000	75.89813000	11.65108000
62.49999647	0.00000000	74.31717000	6.35457700
62.69999645	0.00000000	72.82849000	5.19192900
62.89999644	0.00000000	72.08414000	8.62450800
63.09999643	0.00000000	72.87155000	15.13902000
63.29999642	0.00000000	74.73548000	23.26525000
63.49999641	0.00000000	77.06077000	30.93627000
63.69999639	0.00000000	79.01697000	36.41117000
63.89999638	0.00000000	80.59792000	38.69341000
64.09999637	0.00000000	81.71136000	37.57381000
64.29999636	0.00000000	81.66830000	32.93553000
64.49999635	0.00000000	80.13041000	26.42101000
64.69999634	0.00000000	77.43602000	19.45743000
64.89999632	0.00000000	74.36023000	13.69340000
65.09999631	0.00000000	71.70891000	10.53765000
65.29999630	0.00000000	70.54626000	10.11319000
65.49999629	0.00000000	71.24754000	11.97711000
65.69999628	0.00000000	72.77928000	15.50197000
65.89999626	0.00000000	74.78469000	19.74040000
66.09999625	0.00000000	77.43602000	24.42790000
66.29999624	0.00000000	79.66904000	28.28494000
66.49999623	0.00000000	80.08734000	31.02239000
66.69999622	0.00000000	78.96776000	32.18504000
66.89999620	0.00000000	77.06077000	31.48991000
67.09999619	0.00000000	74.78469000	29.95201000
67.29999618	0.00000000	73.24680000	27.95891000
67.49999617	0.00000000	72.82849000	25.21530000
67.69999616	0.00000000	73.24680000	22.05955000
67.89999615	0.00000000	74.82775000	18.57160000
68.09999613	0.00000000	77.47908000	15.13902000
68.29999612	0.00000000	80.13041000	13.22589000
68.49999611	0.00000000	81.66830000	13.13976000
68.69999610	0.00000000	81.62524000	14.34547000
68.89999609	0.00000000	79.71210000	16.71383000
69.09999607	0.00000000	76.23032000	20.61393000
69.29999606	0.00000000	72.36097000	25.26452000
69.49999605	0.00000000	68.54699000	29.90895000
69.69999604	0.00000000	66.31397000	33.71678000
69.89999603	0.00000000	67.00910000	35.20546000
70.09999601	0.00000000	69.70964000	33.71678000
70.29999600	0.00000000	73.66510000	29.90895000
70.49999599	0.00000000	79.06004000	25.22145000
70.69999598	0.00000000	84.36269000	20.15256000
70.89999597	0.00000000	87.48154000	15.18209000
71.09999596	0.00000000	87.89984000	12.11245000
71.29999594	0.00000000	85.94365000	11.69414000
71.49999593	0.00000000	81.66830000	13.60113000
71.69999592	0.00000000	75.85506000	17.45817000
71.89999591	0.00000000	69.70964000	22.05955000
72.09999590	0.00000000	64.72686000	26.32874000
72.29999588	0.00000000	62.77067000	29.44759000
72.49999587	0.00000000	63.89025000	30.97933000
72.69999586	0.00000000	67.38435000	30.60408000
72.89999585	0.00000000	72.82233000	28.32800000
73.09999584	0.00000000	78.96776000	25.26452000
73.29999582	0.00000000	84.36269000	22.19488000
73.49999581	0.00000000	87.48154000	19.91880000
73.69999580	0.00000000	87.89984000	19.50049000
73.89999579	0.00000000	85.94365000	20.52780000
74.09999578	0.00000000	81.71136000	21.68430000
74.29999577	0.00000000	76.36565000	22.43479000
74.49999575	0.00000000	71.70891000	22.84695000
74.69999574	0.00000000	68.54699000	22.43479000
74.89999573	0.00000000	67.00910000	21.68430000
75.09999572	0.00000000	67.38435000	20.47859000
75.29999571	0.00000000	69.70964000	19.03912000
75.49999569	0.00000000	73.15452000	18.33784000
75.69999568	0.00000000	76.96850000	19.50049000
75.89999567	0.00000000	79.66904000	22.19488000
76.09999566	0.00000000	80.54871000	25.63976000
76.29999565	0.00000000	80.54871000	29.07234000
76.49999563	0.00000000	79.75516000	30.97933000
76.69999562	0.00000000	77.89738000	31.02239000
76.89999561	0.00000000	76.36565000	29.39837000
77.09999560	0.00000000	75.56593000	25.91043000
77.29999559	0.00000000	75.15379000	20.89690000
77.49999558	0.00000000	75.52288000	15.92027000
77.69999556	0.00000000	75.85506000	12.06939000
77.89999555	0.00000000	75.85506000	10.58071000
78.09999554	0.00000000	75.43060000	12.06939000
78.29999553	0.00000000	74.31717000	15.92027000
78.49999552	0.00000000	73.20374000	20.98917000
78.69999550	0.00000000	72.82849000	26.79626000
78.89999549	0.00000000	73.20374000	32.13582000
79.09999548	0.00000000	74.36023000	35.20546000
79.29999547	0.00000000	75.94118000	35.24852000
79.49999546	0.00000000	77.85432000	32.56028000
79.69999544	0.00000000	79.75516000	27.95275000
79.89999543	0.00000000	80.54871000	22.52091000
80.09999542	0.00000000	80.59792000	17.50123000
80.29999541	0.00000000	80.13041000	13.60113000
80.49999540	0.00000000	78.54945000	11.69414000
80.69999539	0.00000000	75.85506000	12.02018000
80.89999537	0.00000000	72.82849000	14.29626000
81.09999536	0.00000000	70.54626000	17.45817000
81.29999535	0.00000000	70.12794000	21.36442000
81.49999534	0.00000000	71.24754000	25.95964000
81.69999533	0.00000000	73.15452000	29.39837000
81.89999531	0.00000000	75.52288000	31.06545000
82.09999530	0.00000000	77.85432000	31.48376000
82.29999529	0.00000000	80.13041000	31.02239000
82.49999528	0.00000000	81.24999000	29.07234000
82.69999527	0.00000000	80.50565000	25.59055000
82.89999525	0.00000000	78.64173000	21.77658000
83.09999524	0.00000000	76.31644000	18.25172000
83.29999523	0.00000000	74.40945000	15.92027000
83.49999522	0.00000000	73.20374000	14.67150000
83.69999521	0.00000000	72.77928000	14.30241000
83.89999520	0.00000000	72.77928000	14.76378000
84.09999518	0.00000000	73.20374000	16.71383000
84.29999517	0.00000000	74.31717000	20.19562000
84.49999516	0.00000000	75.43060000	24.05881000
84.69999515	0.00000000	75.85506000	27.95275000
84.89999514	0.00000000	75.89813000	30.97933000
85.09999512	0.00000000	75.89813000	32.13582000
85.29999511	0.00000000	75.89813000	31.02239000
85.49999510	0.00000000	75.94118000	28.32800000
85.69999509	0.00000000	76.31644000	24.79700000
85.89999508	0.00000000	77.06077000	20.52780000
86.09999506	0.00000000	77.43602000	16.29552000
86.29999505	0.00000000	77.43602000	13.26895000
86.49999504	0.00000000	77.01156000	12.48770000
86.69999503	0.00000000	75.85506000	14.38853000
86.89999502	0.00000000	74.31717000	17.83341000
87.09999501	0.00000000	72.77928000	22.14567000
87.29999499	0.00000000	71.66584000	26.74705000
87.49999498	0.00000000	71.66584000	30.56102000
87.69999497	0.00000000	72.77928000	32.09276000
87.89999496	0.00000000	74.31717000	30.97933000
88.09999495	0.00000000	75.89813000	27.90969000
88.29999493	0.00000000	77.43602000	23.68356000
88.49999492	0.00000000	78.59251000	19.45743000
88.69999491	0.00000000	78.96776000	16.33858000
88.89999490	0.00000000	78.59251000	14.76378000
89.09999489	0.00000000	77.43602000	14.80684000
89.29999487	0.00000000	75.89813000	16.76304000
89.49999486	0.00000000	74.36023000	20.61393000
89.69999485	0.00000000	73.20374000	25.17224000
89.89999484	0.00000000	72.77928000	29.02928000
90.09999483	0.00000000	72.77928000	30.93627000
90.29999482	0.00000000	73.20374000	30.56102000
90.49999480	0.00000000	74.36023000	27.86663000
90.69999479	0.00000000	75.85506000	23.68356000
90.89999478	0.00000000	77.01156000	19.45743000
91.09999477	0.00000000	77.43602000	16.33858000
91.29999476	0.00000000	77.47908000	14.80684000
91.49999474	0.00000000	77.43602000	15.27436000
91.69999473	0.00000000	77.06077000	18.29478000
91.89999472	0.00000000	76.31644000	22.89001000
92.09999471	0.00000000	75.94118000	27.07923000
92.29999470	0.00000000	75.89813000	30.18578000
92.49999468	0.00000000	75.89813000	30.93627000
92.69999467	0.00000000	75.85506000	29.44759000
92.89999466	0.00000000	75.47981000	26.32874000
93.09999465	0.00000000	74.69241000	22.10261000
93.29999464	0.00000000	73.94193000	17.87647000
93.49999463	0.00000000	73.15452000	14.84990000
93.69999461	0.00000000	72.82849000	14.11171000
93.89999460	0.00000000	73.24680000	16.38779000
94.09999459	0.00000000	74.73548000	20.52780000
94.29999458	0.00000000	76.64246000	24.79700000
94.49999457	0.00000000	77.85432000	28.24188000
94.69999455	0.00000000	79.06004000	30.18578000
94.89999454	0.00000000	80.13041000	29.77362000
95.09999453	0.00000000	80.13041000	27.49138000
95.29999452	0.00000000	78.92471000	23.64050000
95.49999451	0.00000000	76.64246000	19.45743000
95.69999449	0.00000000	73.52977000	16.33858000
95.89999448	0.00000000	70.87228000	14.80684000
96.09999447	0.00000000	68.87917000	15.22515000
96.29999446	0.00000000	68.17175000	17.87647000
96.49999445	0.00000000	68.92224000	21.68430000
96.69999444	0.00000000	71.29060000	25.17224000
96.89999442	0.00000000	74.73548000	27.86663000
97.09999441	0.00000000	78.64173000	29.02928000
97.29999440	0.00000000	82.04355000	28.28494000
97.49999439	0.00000000	83.98745000	26.37795000
97.69999438	0.00000000	83.62450000	23.64050000
97.89999436	0.00000000	81.75443000	20.61393000
98.09999435	0.00000000	78.96776000	18.33784000
98.29999434	0.00000000	75.47981000	17.91953000
98.49999433	0.00000000	71.62278000	18.98991000
98.69999432	0.00000000	68.54699000	20.52780000
98.89999430	0.00000000	66.95989000	22.05955000
99.09999429	0.00000000	66.95989000	23.21604000
99.29999428	0.00000000	68.54699000	23.64050000
99.49999427	0.00000000	71.66584000	23.68356000
99.69999426	0.00000000	75.89813000	23.68356000
99.89999425	0.00000000	80.08734000	23.68356000
100.09999423	0.00000000	82.78174000	23.68356000
100.29999422	0.00000000	83.24926000	23.68356000
100.49999421	0.00000000	82.17889000	23.72662000
100.69999420	0.00000000	80.54871000	24.05881000
100.89999419	0.00000000	78.17421000	24.42790000
101.09999417	0.00000000	74.73548000	23.96653000
101.29999416	0.00000000	71.66584000	22.89001000
101.49999415	0.00000000	69.70964000	21.27830000
101.69999414	0.00000000	68.87917000	19.77731000
101.89999413	0.00000000	69.29134000	18.25172000
102.09999411	0.00000000	70.46014000	17.91953000
102.29999410	0.00000000	72.77928000	19.03912000
102.49999409	0.00000000	75.43060000	20.98917000
102.69999408	0.00000000	77.43602000	23.68356000
102.89999407	0.00000000	79.01697000	26.32874000
103.09999406	0.00000000	80.13041000	27.90969000
103.29999404	0.00000000	80.13041000	28.28494000
103.49999403	0.00000000	78.96776000	27.49138000
103.69999402	0.00000000	77.06077000	25.17224000
103.89999401	0.00000000	74.73548000	22.10261000
104.09999400	0.00000000	72.82849000	19.03297000
104.29999398	0.00000000	71.62278000	16.71383000
104.49999397	0.00000000	71.24754000	15.96334000
104.69999396	0.00000000	71.62278000	16.71383000
104.89999395	0.00000000	72.77928000	19.03297000
105.09999394	0.00000000	74.31717000	22.05955000
105.29999392	0.00000000	75.85506000	24.79700000
105.49999391	0.00000000	77.01156000	26.75320000
105.69999390	0.00000000	77.43602000	27.86663000
105.89999389	0.00000000	77.43602000	27.44832000
106.09999388	0.00000000	77.01156000	25.21530000
106.29999387	0.00000000	75.89813000	22.57013000
106.49999385	0.00000000	74.78469000	20.61393000
106.69999384	0.00000000	74.36023000	19.41437000
106.89999383	0.00000000	74.36023000	19.03912000
107.09999382	0.00000000	74.73548000	19.41437000
107.29999381	0.00000000	75.52288000	20.57087000
107.49999379	0.00000000	76.27337000	22.10261000
107.69999378	0.00000000	77.06077000	23.64050000
107.89999377	0.00000000	77.38681000	24.75394000
108.09999376	0.00000000	77.01156000	24.75394000
108.29999375	0.00000000	75.85506000	23.64050000
108.49999374	0.00000000	74.36023000	22.10261000
108.69999372	0.00000000	73.20374000	20.61393000
108.89999371	0.00000000	72.77928000	19.83268000
109.09999370	0.00000000	72.77928000	20.15256000
109.29999369	0.00000000	73.20374000	20.52780000
109.49999368	0.00000000	74.36023000	20.98917000
109.69999366	0.00000000	75.89813000	22.15182000
109.89999365	0.00000000	77.43602000	23.68356000
110.09999364	0.00000000	78.54945000	25.17224000
110.29999363	0.00000000	78.54945000	25.91043000
110.49999362	0.00000000	77.43602000	25.17224000
110.69999360	0.00000000	75.89813000	23.68356000
110.89999359	0.00000000	74.36023000	22.10261000
111.09999358	0.00000000	73.20374000	20.57087000
111.29999357	0.00000000	72.77928000	19.41437000
111.49999356	0.00000000	72.77928000	19.03912000
111.69999355	0.00000000	73.15452000	19.41437000
111.89999353	0.00000000	73.94193000	20.57087000
112.09999352	0.00000000	74.69241000	22.05955000
112.29999351	0.00000000	75.52288000	23.21604000
112.49999350	0.00000000	76.23032000	23.64050000
112.69999349	0.00000000	76.64246000	23.64050000
112.89999347	0.00000000	76.23032000	23.26525000
113.09999346	0.00000000	75.47981000	22.52091000
113.29999345	0.00000000	74.36023000	22.14567000
113.49999344	0.00000000	73.57283000	22.10261000
113.69999343	0.00000000	73.52361000	22.05955000
113.89999341	0.00000000	73.15452000	21.72736000
114.09999340	0.00000000	73.20374000	21.36442000
114.29999339	0.00000000	73.89886000	21.68430000
114.49999338	0.00000000	74.31717000	21.64124000
114.69999337	0.00000000	74.73548000	20.94611000
114.89999336	0.00000000	75.47981000	20.57087000
115.09999334	0.00000000	75.85506000	20.52780000
115.29999333	0.00000000	75.89813000	20.52780000
115.49999332	0.00000000	75.89813000	20.57087000
115.69999331	0.00000000	75.89813000	20.94611000
115.89999330	0.00000000	75.85506000	21.72736000
116.09999328	0.00000000	75.47981000	22.47785000
116.29999327	0.00000000	74.69241000	23.26525000
116.49999326	0.00000000	73.98499000	23.64050000
116.69999325	0.00000000	73.57283000	23.68356000
116.89999324	0.00000000	73.94193000	23.68356000
117.09999322	0.00000000	74.31717000	23.64050000
117.29999321	0.00000000	74.73548000	23.26525000
117.49999320	0.00000000	75.52288000	22.47785000
117.69999319	0.00000000	76.27337000	21.72736000
117.89999318	0.00000000	77.06077000	20.94611000
118.09999317	0.00000000	77.38681000	20.57087000
118.29999315	0.00000000	77.06077000	20.57087000
118.49999314	0.00000000	76.27337000	20.94611000
118.69999313	0.00000000	75.47981000	21.72736000
118.89999312	0.00000000	74.31717000	22.47785000
119.09999311	0.00000000	73.15452000	23.26525000
119.29999309	0.00000000	72.40403000	23.64050000
119.49999308	0.00000000	71.99188000	23.72662000
119.69999307	0.00000000	72.40403000	24.05881000
119.89999306	0.00000000	73.15452000	24.37869000
120.09999305	0.00000000	74.36023000	23.64050000
120.29999303	0.00000000	75.85506000	22.57013000
120.49999302	0.00000000	77.01156000	22.14567000
120.69999301	0.00000000	77.43602000	22.10261000
120.89999300	0.00000000	77.43602000	22.05955000
121.09999299	0.00000000	77.06077000	21.68430000
121.29999298	0.00000000	76.27337000	20.94611000
121.49999296	0.00000000	75.47981000	20.57087000
121.69999295	0.00000000	74.31717000	20.57087000
121.89999294	0.00000000	73.15452000	20.94611000
122.09999293	0.00000000	72.40403000	21.68430000
122.29999292	0.00000000	71.99188000	22.10261000
122.49999290	0.00000000	72.40403000	22.52091000
122.69999289	0.00000000	73.11147000	23.26525000
122.89999288	0.00000000	73.94193000	23.64050000
123.09999287	0.00000000	74.69241000	23.68356000
123.29999286	0.00000000	75.52288000	23.64050000
123.49999284	0.00000000	76.27337000	23.26525000
123.69999283	0.00000000	77.01156000	22.52091000
123.89999282	0.00000000	77.01156000	22.10261000
124.09999281	0.00000000	76.27337000	21.68430000
124.29999280	0.00000000	75.52288000	20.94611000
124.49999279	0.00000000	74.69241000	20.57087000
124.69999277	0.00000000	73.94193000	20.57087000
124.89999276	0.00000000	73.15452000	20.94611000
125.09999275	0.00000000	72.77928000	21.68430000
125.29999274	0.00000000	72.73621000	22.10261000
125.49999273	0.00000000	72.77928000	22.52091000
125.69999271	0.00000000	73.20374000	23.26525000
125.89999270	0.00000000	74.31717000	23.64050000
126.09999269	0.00000000	75.43060000	23.68356000
126.29999268	0.00000000	75.85506000	23.64050000
126.49999267	0.00000000	75.94118000	23.26525000
126.69999265	0.00000000	76.27337000	22.52091000
126.89999264	0.00000000	76.64246000	22.14567000
127.09999263	0.00000000	76.23032000	22.10261000
127.29999262	0.00000000	75.47981000	22.10261000
127.49999261	0.00000000	74.31717000	22.05955000
127.69999260	0.00000000	73.20374000	21.72736000
127.89999258	0.00000000	72.77928000	21.36442000
128.09999257	0.00000000	72.73621000	21.77658000
128.29999256	0.00000000	72.77928000	22.47785000
128.49999255	0.00000000	73.20374000	23.21604000
128.69999254	0.00000000	74.31717000	23.21604000
128.89999252	0.00000000	75.47981000	22.52091000
129.09999251	0.00000000	76.23032000	22.14567000
129.29999250	0.00000000	76.64246000	22.10261000
129.49999249	0.00000000	76.23032000	22.10261000
129.69999248	0.00000000	75.52288000	22.10261000
129.89999246	0.00000000	74.69241000	22.10261000
130.09999245	0.00000000	73.94193000	22.10261000
130.29999244	0.00000000	73.15452000	22.10261000
130.49999243	0.00000000	72.77928000	22.10261000
130.69999242	0.00000000	72.77928000	22.14567000
130.89999241	0.00000000	73.20374000	22.47785000
131.09999239	0.00000000	74.31717000	22.84695000
131.29999238	0.00000000	75.43060000	22.47785000
131.49999237	0.00000000	75.85506000	22.14567000
131.69999236	0.00000000	75.89813000	22.05955000
131.89999235	0.00000000	75.85506000	21.68430000
132.09999233	0.00000000	75.47981000	20.94611000
132.29999232	0.00000000	74.69241000	20.57087000
132.49999231	0.00000000	73.94193000	20.57087000
132.69999230	0.00000000	73.15452000	20.94611000
132.89999229	0.00000000	72.82849000	21.68430000
133.09999227	0.00000000	73.15452000	22.10261000
133.29999226	0.00000000	73.89886000	22.52091000
133.49999225	0.00000000	74.27411000	23.30832000
133.69999224	0.00000000	74.31717000	24.01575000
133.89999223	0.00000000	74.31717000	24.37869000
134.09999222	0.00000000	74.31717000	23.64050000
134.29999220	0.00000000	74.31717000	22.52091000
134.49999219	0.00000000	74.31717000	21.72736000
134.69999218	0.00000000	74.31717000	20.94611000
134.89999217	0.00000000	74.31717000	20.57087000
135.09999216	0.00000000	74.31717000	20.52780000
135.29999214	0.00000000	74.31717000	20.52780000
135.49999213	0.00000000	74.31717000	20.57087000
135.69999212	0.00000000	74.31717000	20.98917000
135.89999211	0.00000000	74.31717000	22.10261000
136.09999210	0.00000000	74.27411000	23.21604000
136.29999208	0.00000000	73.89886000	23.64050000
136.49999207	0.00000000	73.15452000	23.68356000
136.69999206	0.00000000	72.77928000	23.68356000
136.89999205	0.00000000	72.77928000	23.64050000
137.09999204	0.00000000	73.15452000	23.26525000
137.29999203	0.00000000	73.89886000	22.47785000
137.49999201	0.00000000	74.31717000	21.72736000
137.69999200	0.00000000	74.73548000	20.94611000
137.89999199	0.00000000	75.47981000	20.57087000
138.09999198	0.00000000	75.85506000	20.52780000
138.29999197	0.00000000	75.85506000	20.52780000
138.49999195	0.00000000	75.47981000	20.57087000
138.69999194	0.00000000	74.69241000	20.94611000
138.89999193	0.00000000	73.94193000	21.68430000
139.09999192	0.00000000	73.15452000	22.10261000
139.29999191	0.00000000	72.77928000	22.52091000
139.49999189	0.00000000	72.77928000	23.26525000
139.69999188	0.00000000	73.15452000	23.64050000
139.89999187	0.00000000	73.89886000	23.68356000
140.09999186	0.00000000	74.31717000	23.64050000
140.29999185	0.00000000	74.73548000	23.26525000
140.49999184	0.00000000	75.43060000	22.47785000
140.69999182	0.00000000	75.43060000	21.72736000
140.89999181	0.00000000	74.73548000	20.90305000
141.09999180	0.00000000	74.36023000	20.19562000
141.29999179	0.00000000	74.31717000	19.78346000
141.49999178	0.00000000	74.27411000	20.19562000
141.69999176	0.00000000	73.94193000	20.94611000
141.89999175	0.00000000	73.57283000	22.10261000
142.09999174	0.00000000	73.94193000	23.26525000
142.29999173	0.00000000	74.27411000	24.05881000
142.49999172	0.00000000	74.31717000	24.79700000
142.69999170	0.00000000	74.31717000	24.75394000
142.89999169	0.00000000	74.31717000	23.64050000
143.09999168	0.00000000	74.31717000	22.15182000
143.29999167	0.00000000	74.31717000	20.98917000
143.49999166	0.00000000	74.31717000	20.57087000
143.69999165	0.00000000	74.27411000	20.52780000
143.89999163	0.00000000	73.94193000	20.52780000
144.09999162	0.00000000	73.57283000	20.52780000
144.29999161	0.00000000	73.94193000	20.57087000
144.49999160	0.00000000	74.27411000	20.94611000
144.69999159	0.00000000	74.31717000	21.72736000
144.89999157	0.00000000	74.31717000	22.47785000
145.09999156	0.00000000	74.31717000	23.21604000
145.29999155	0.00000000	74.31717000	23.21604000
145.49999154	0.00000000	74.31717000	22.52091000
145.69999153	0.00000000	74.27411000	22.14567000
145.89999151	0.00000000	73.89886000	22.05955000
146.09999150	0.00000000	73.15452000	21.68430000
146.29999149	0.00000000	72.82849000	20.94611000
146.49999148	0.00000000	73.15452000	20.57087000
146.69999147	0.00000000	73.89886000	20.57087000
146.89999146	0.00000000	74.27411000	20.94611000
147.09999144	0.00000000	74.36023000	21.68430000
147.29999143	0.00000000	74.69241000	22.05955000
147.49999142	0.00000000	75.06151000	22.10261000
147.69999141	0.00000000	74.69241000	22.10261000
147.89999140	0.00000000	74.31717000	22.10261000
148.09999138	0.00000000	73.89886000	22.10261000
148.29999137	0.00000000	73.15452000	22.10261000
148.49999136	0.00000000	72.77928000	22.10261000
148.69999135	0.00000000	72.77928000	22.10261000
148.89999134	0.00000000	73.15452000	22.05955000
149.09999132	0.00000000	73.89886000	21.68430000
149.29999131	0.00000000	74.27411000	20.94611000
149.49999130	0.00000000	74.31717000	20.62008000
149.69999129	0.00000000	74.36023000	20.94611000
149.89999128	0.00000000	74.69241000	21.68430000
150.09999127	0.00000000	75.06151000	22.05955000
150.29999125	0.00000000	74.69241000	22.10261000
150.49999124	0.00000000	74.36023000	22.10261000
150.69999123	0.00000000	74.31717000	22.14567000
150.89999122	0.00000000	74.27411000	22.52091000
151.09999121	0.00000000	73.89886000	23.21604000
151.29999119	0.00000000	73.15452000	23.21604000
151.49999118	0.00000000	72.82849000	22.52091000
151.69999117	0.00000000	73.15452000	22.14567000
151.89999116	0.00000000	73.89886000	22.10261000
152.09999115	0.00000000	74.27411000	22.10261000
152.29999113	0.00000000	74.31717000	22.05955000
152.49999112	0.00000000	74.31717000	21.72736000
152.69999111	0.00000000	74.31717000	21.36442000
152.89999110	0.00000000	74.31717000	21.72736000
153.09999109	0.00000000	74.31717000	22.05955000
153.29999108	0.00000000	74.31717000	22.10261000
153.49999106	0.00000000	74.31717000	22.10261000
153.69999105	0.00000000	74.27411000	22.10261000
153.89999104	0.00000000	73.89886000	22.10261000
154.09999103	0.00000000	73.15452000	22.10261000
154.29999102	0.00000000	72.77928000	22.10261000
154.49999100	0.00000000	72.77928000	22.10261000
154.69999099	0.00000000	73.11147000	22.10261000
154.89999098	0.00000000	73.52361000	22.10261000
155.09999097	0.00000000	73.52977000	22.10261000
155.29999096	0.00000000	73.94193000	22.10261000
155.49999094	0.00000000	74.27411000	22.05955000
155.69999093	0.00000000	74.31717000	21.68430000
155.89999092	0.00000000	74.31717000	20.98917000
156.09999091	0.00000000	74.31717000	20.98917000
156.29999090	0.00000000	74.31717000	21.68430000
156.49999089	0.00000000	74.27411000	22.05955000
156.69999087	0.00000000	73.89886000	22.10261000
156.89999086	0.00000000	73.15452000	22.10261000
157.09999085	0.00000000	72.77928000	22.14567000
157.29999084	0.00000000	72.73621000	22.52091000
157.49999083	0.00000000	72.73621000	23.21604000
157.69999081	0.00000000	72.77928000	23.21604000
157.89999080	0.00000000	73.15452000	22.47785000
158.09999079	0.00000000	73.89886000	21.68430000
158.29999078	0.00000000	74.27411000	20.57087000
158.49999077	0.00000000	74.31717000	19.87574000
158.69999075	0.00000000	74.31717000	20.57087000
158.89999074	0.00000000	74.31717000	21.64124000
159.09999073	0.00000000	74.31717000	22.05955000
159.29999072	0.00000000	74.31717000	22.10261000
159.49999071	0.00000000	74.31717000	22.14567000
159.69999070	0.00000000	74.27411000	22.52091000
159.89999068	0.00000000	73.89886000	23.21604000
160.09999067	0.00000000	73.15452000	23.21604000
160.29999066	0.00000000	72.77928000	22.52091000
160.49999065	0.00000000	72.73621000	22.14567000
160.69999064	0.00000000	72.73621000	22.05955000
160.89999062	0.00000000	72.77928000	21.68430000
161.09999061	0.00000000	73.15452000	20.94611000
161.29999060	0.00000000	73.89886000	20.57087000
161.49999059	0.00000000	74.27411000	20.52780000
161.69999058	0.00000000	74.31717000	20.52780000
161.89999056	0.00000000	74.31717000	20.57087000
162.09999055	0.00000000	74.31717000	20.94611000
162.29999054	0.00000000	74.31717000	21.68430000
162.49999053	0.00000000	74.31717000	22.05955000
162.69999052	0.00000000	74.31717000	22.10261000
162.89999051	0.00000000	74.31717000	22.14567000
163.09999049	0.00000000	74.27411000	22.47785000
163.29999048	0.00000000	73.89886000	22.84695000
163.49999047	0.00000000	73.15452000	22.47785000
163.69999046	0.00000000	72.77928000	22.14567000
163.89999045	0.00000000	72.73621000	22.10261000
164.09999043	0.00000000	72.73621000	22.05955000
164.29999042	0.00000000	72.77928000	21.68430000
164.49999041	0.00000000	73.15452000	20.94611000
164.69999040	0.00000000	73.89886000	20.62008000
164.89999039	0.00000000	74.27411000	20.94611000
165.09999037	0.00000000	74.31717000	21.68430000
165.29999036	0.00000000	74.31717000	22.05955000
165.49999035	0.00000000	74.31717000	22.10261000
165.69999034	0.00000000	74.31717000	22.10261000
165.89999033	0.00000000	74.31717000	22.10261000
166.09999032	0.00000000	74.27411000	22.10261000
166.29999030	0.00000000	73.94193000	22.10261000
166.49999029	0.00000000	73.52977000	22.10261000
166.69999028	0.00000000	73.52361000	22.10261000
166.89999027	0.00000000	73.11147000	22.10261000
167.09999026	0.00000000	72.77928000	22.10261000
167.29999024	0.00000000	72.77928000	22.10261000
167.49999023	0.00000000	73.15452000	22.05955000
167.69999022	0.00000000	73.89886000	21.68430000
167.89999021	0.00000000	74.27411000	20.98917000
168.09999020	0.00000000	74.31717000	20.98917000
168.29999018	0.00000000	74.31717000	21.68430000
168.49999017	0.00000000	74.27411000	22.05955000
168.69999016	0.00000000	73.94193000	22.10261000
168.89999015	0.00000000	73.57283000	22.10261000
169.09999014	0.00000000	73.94193000	22.10261000
169.29999013	0.00000000	74.27411000	22.10261000
169.49999011	0.00000000	74.27411000	22.10261000
169.69999010	0.00000000	73.89886000	22.05955000
169.89999009	0.00000000	73.15452000	21.72736000
170.09999008	0.00000000	72.77928000	21.36442000
170.29999007	0.00000000	72.77928000	21.72736000
170.49999005	0.00000000	73.11147000	22.05955000
170.69999004	0.00000000	73.48056000	22.10261000
170.89999003	0.00000000	73.15452000	22.10261000
171.09999002	0.00000000	73.20374000	22.10261000
171.29999001	0.00000000	73.89886000	22.10261000
171.49998999	0.00000000	74.27411000	22.05955000
171.69998998	0.00000000	74.31717000	21.68430000
171.89998997	0.00000000	74.27411000	20.94611000
172.09998996	0.00000000	73.89886000	20.57087000
172.29998995	0.00000000	73.15452000	20.57087000
172.49998994	0.00000000	72.77928000	20.94611000
172.69998992	0.00000000	72.73621000	21.64124000
172.89998991	0.00000000	72.73621000	21.64124000
173.09998990	0.00000000	72.73621000	20.98917000
173.29998989	0.00000000	72.77928000	20.98917000
173.49998988	0.00000000	73.15452000	21.68430000
173.69998986	0.00000000	73.89886000	22.05955000
173.89998985	0.00000000	74.27411000	22.10261000
174.09998984	0.00000000	74.31717000	22.05955000
174.29998983	0.00000000	74.27411000	21.68430000
174.49998982	0.00000000	73.89886000	20.94611000
174.69998980	0.00000000	73.15452000	20.62008000
174.89998979	0.00000000	72.77928000	20.90305000
175.09998978	0.00000000	72.73621000	21.30905000
175.29998977	0.00000000	72.73621000	21.32136000
175.49998976	0.00000000	72.73621000	21.72736000
175.69998975	0.00000000	72.73621000	22.05955000
175.89998973	0.00000000	72.77928000	22.10261000
176.09998972	0.00000000	73.15452000	22.10261000
176.29998971	0.00000000	73.89886000	22.10261000
176.49998970	0.00000000	74.27411000	22.10261000
176.69998969	0.00000000	74.27411000	22.10261000
176.89998967	0.00000000	73.94193000	22.10261000
177.09998966	0.00000000	73.57283000	22.10261000
177.29998965	0.00000000	73.89886000	22.05955000
177.49998964	0.00000000	73.84965000	21.68430000
177.69998963	0.00000000	73.20374000	20.98917000
177.89998961	0.00000000	73.15452000	20.98917000
178.09998960	0.00000000	73.48056000	21.68430000
178.29998959	0.00000000	73.11147000	22.05955000
178.49998958	0.00000000	72.77928000	22.10261000
178.69998957	0.00000000	72.73621000	22.10261000
178.89998956	0.00000000	72.73621000	22.10261000
179.09998954	0.00000000	72.73621000	22.10261000
179.29998953	0.00000000	72.73621000	22.10261000
179.49998952	0.00000000	72.77928000	22.10261000
179.69998951	0.00000000	73.11147000	22.05955000
179.89998950	0.00000000	73.48056000	21.68430000
180.09998948	0.00000000	73.11147000	20.98917000
180.29998947	0.00000000	72.77928000	20.94611000
180.49998946	0.00000000	72.73621000	21.26599000
180.69998945	0.00000000	72.73621000	20.90305000
180.89998944	0.00000000	72.73621000	20.57087000
181.09998942	0.00000000	72.73621000	20.57087000
181.29998941	0.00000000	72.73621000	20.94611000
181.49998940	0.00000000	72.73621000	21.68430000
181.69998939	0.00000000	72.73621000	22.05955000
181.89998938	0.00000000	72.77928000	22.10261000
182.09998937	0.00000000	73.11147000	22.10261000
182.29998935	0.00000000	73.52361000	22.10261000
182.49998934	0.00000000	73.52977000	22.10261000
182.69998933	0.00000000	73.94193000	22.05955000
182.89998932	0.00000000	74.22490000	21.68430000
183.09998931	0.00000000	73.89886000	20.94611000
183.29998929	0.00000000	73.15452000	20.57087000
183.49998928	0.00000000	72.77928000	20.52780000
183.69998927	0.00000000	72.73621000	20.52780000
183.89998926	0.00000000	72.73621000	20.52780000
184.09998925	0.00000000	72.73621000	20.57087000
184.29998923	0.00000000	72.73621000	20.94611000
184.49998922	0.00000000	72.73621000	21.68430000
184.69998921	0.00000000	72.73621000	22.05955000
184.89998920	0.00000000	72.73621000	22.10261000
185.09998919	0.00000000	72.73621000	22.10261000
185.29998918	0.00000000	72.73621000	22.10261000
185.49998916	0.00000000	72.73621000	22.10261000
185.69998915	0.00000000	72.73621000	22.10261000
185.89998914	0.00000000	72.73621000	22.05955000
186.09998913	0.00000000	72.77928000	21.68430000
186.29998912	0.00000000	73.11147000	20.94611000
186.49998910	0.00000000	73.48056000	20.57087000
186.69998909	0.00000000	73.11147000	20.52780000
186.89998908	0.00000000	72.77928000	20.52780000
187.09998907	0.00000000	72.73621000	20.57087000
187.29998906	0.00000000	72.73621000	20.94611000
187.49998904	0.00000000	72.73621000	21.72736000
187.69998903	0.00000000	72.73621000	22.43479000
187.89998902	0.00000000	72.73621000	22.84695000
188.09998901	0.00000000	72.73621000	22.43479000
188.29998900	0.00000000	72.77928000	21.81964000
188.49998899	0.00000000	73.15452000	21.69660000
188.69998897	0.00000000	73.89886000	22.05339000
188.89998896	0.00000000	74.27411000	21.27830000
189.09998895	0.00000000	74.27411000	20.62008000
189.29998894	0.00000000	73.89886000	20.48474000
189.49998893	0.00000000	73.15452000	20.15256000
189.69998891	0.00000000	72.77928000	19.78346000
189.89998890	0.00000000	72.73621000	20.19562000
190.09998889	0.00000000	72.73621000	20.90305000
190.29998888	0.00000000	72.73621000	21.68430000
190.49998887	0.00000000	72.73621000	22.05955000
190.69998885	0.00000000	72.73621000	22.10261000
190.89998884	0.00000000	72.73621000	22.10261000
191.09998883	0.00000000	72.73621000	22.10261000
191.29998882	0.00000000	72.73621000	22.10261000
191.49998881	0.00000000	72.73621000	22.05955000
191.69998880	0.00000000	72.73621000	21.68430000
191.89998878	0.00000000	72.73621000	20.98917000
192.09998877	0.00000000	72.73621000	20.94611000
192.29998876	0.00000000	72.73621000	21.26599000
192.49998875	0.00000000	72.73621000	20.90305000
192.69998874	0.00000000	72.73621000	20.57087000
192.89998872	0.00000000	72.73621000	20.52780000
193.09998871	0.00000000	72.73621000	20.52780000
193.29998870	0.00000000	72.73621000	20.57087000
193.49998869	0.00000000	72.73621000	20.90305000
193.69998868	0.00000000	72.73621000	21.26599000
193.89998866	0.00000000	72.73621000	20.94611000
194.09998865	0.00000000	72.73621000	20.98917000
194.29998864	0.00000000	72.73621000	21.68430000
194.49998863	0.00000000	72.73621000	22.05955000
194.69998862	0.00000000	72.73621000	22.05955000
194.89998861	0.00000000	72.73621000	21.72736000
195.09998859	0.00000000	72.73621000	21.36442000
195.29998858	0.00000000	72.73621000	21.72736000
195.49998857	0.00000000	72.73621000	22.01033000
195.69998856	0.00000000	72.73621000	21.68430000
195.89998855	0.00000000	72.73621000	20.94611000
196.09998853	0.00000000	72.73621000	20.57087000
