Time	Channel A	Channel B	Channel C
(us)	(V)	(mV)	(mV)

-4.49999956	0.00000000	79.06004000	31.57603000
-4.29999957	0.00000000	79.06004000	31.57603000
-4.09999958	0.00000000	79.06004000	31.57603000
-3.89999959	0.00000000	79.06004000	31.57603000
-3.69999960	0.00000000	79.06004000	31.57603000
-3.49999962	0.00000000	79.06004000	31.57603000
-3.29999963	0.00000000	79.10310000	31.57603000
-3.09999964	0.00000000	79.43528000	31.57603000
-2.89999965	0.00000000	79.80437000	31.57603000
-2.69999966	0.00000000	79.43528000	31.57603000
-2.49999968	0.00000000	79.10310000	31.57603000
-2.29999969	0.00000000	79.06004000	31.57603000
-2.09999970	0.00000000	79.06004000	31.53297000
-1.89999971	0.00000000	79.06004000	31.15772000
-1.69999972	0.00000000	79.06004000	30.41954000
-1.49999973	0.00000000	79.06004000	30.04429000
-1.29999975	0.00000000	79.06004000	30.04429000
-1.09999976	0.00000000	79.06004000	30.37647000
-0.89999977	0.00000000	79.06004000	30.78248000
-0.69999978	-0.15871060	79.06004000	30.79478000
-0.49999979	0.00000000	79.06004000	31.15772000
-0.29999981	0.31803640	79.06004000	31.11466000
-0.09999982	0.63668800	79.06004000	30.41954000
0.10000017	0.95533960	79.06004000	30.04429000
0.30000016	0.95533960	79.06004000	30.00123000
0.50000015	0.79601380	79.06004000	30.00123000
0.70000013	0.15871060	79.06004000	30.00123000
0.90000012	-0.63668800	79.06004000	30.00123000
1.10000011	-1.75196900	79.06004000	30.00123000
1.30000010	-2.54859700	79.06004000	30.00123000
1.50000009	-2.86724900	79.06004000	30.04429000
1.70000008	-2.38927200	79.06004000	30.41954000
1.90000006	-0.95533960	79.06004000	31.11466000
2.10000005	0.79601380	79.06004000	31.11466000
2.30000004	3.02657500	79.06004000	30.41954000
2.50000003	4.61921700	79.06004000	30.04429000
2.70000002	5.25652100	79.06004000	30.00123000
2.90000000	4.61921700	79.06004000	30.00123000
3.09999999	2.38927200	79.06004000	30.00123000
3.29999998	-0.63668800	79.06004000	30.00123000
3.49999997	-4.14124000	79.06004000	30.00123000
3.69999996	-6.84916400	79.06004000	30.04429000
3.89999994	-7.96444400	79.06004000	30.41954000
4.09999993	-7.16781500	79.06004000	31.15772000
4.29999992	-4.45989200	79.06004000	31.53297000
4.49999991	-0.47736220	79.06004000	31.53297000
4.69999990	4.14124000	79.06004000	31.15772000
4.89999989	7.64579200	79.06004000	30.41954000
5.09999987	9.39837600	79.01697000	30.04429000
5.29999986	8.76107300	78.68478000	30.00123000
5.49999985	6.05315000	78.31569000	30.00123000
5.69999984	1.59264300	78.68478000	30.00123000
5.89999983	-3.18590100	79.01697000	30.00123000
6.09999981	-7.16781500	79.06004000	30.00123000
6.29999980	-9.23905000	79.06004000	30.04429000
6.49999979	-9.07972400	79.06004000	30.41954000
6.69999978	-6.69045300	79.06004000	31.15772000
6.89999977	-2.70792300	79.06004000	31.53297000
7.09999975	1.59264300	79.06004000	31.57603000
7.29999974	5.25652100	79.06004000	31.53297000
7.49999973	7.48646600	79.06004000	31.15772000
7.69999972	7.48646600	79.06004000	30.41954000
7.89999971	5.73449800	79.06004000	30.04429000
8.09999970	2.86724900	79.06004000	30.00123000
8.29999968	-0.47736220	79.06004000	30.00123000
8.49999967	-3.18590100	79.06004000	30.00123000
8.69999966	-4.93786900	79.06004000	30.00123000
8.89999965	-5.09719500	79.06004000	30.04429000
9.09999964	-4.14124000	79.06004000	30.41954000
9.29999962	-2.38927200	79.06004000	31.11466000
9.49999961	-0.31803640	79.06004000	31.15772000
9.69999960	1.27399100	79.06004000	30.79478000
9.89999959	2.22994600	79.06004000	30.78248000
10.09999958	2.54859700	79.06004000	30.41954000
10.29999956	2.07062000	79.06004000	30.41954000
10.49999955	1.27399100	79.06004000	30.73942000
10.69999954	0.31803640	79.06004000	30.37647000
10.89999953	-0.31803640	79.06004000	30.09350000
11.09999952	-0.79601380	79.06004000	30.37647000
11.29999951	-0.95533960	79.06004000	30.78248000
11.49999949	-0.95533960	79.06004000	30.74557000
11.69999948	-0.79601380	79.06004000	30.78248000
11.89999947	-0.31803640	79.06004000	30.41954000
12.09999946	-0.15871060	79.06004000	30.41954000
12.29999945	-0.15871060	79.06004000	30.78248000
12.49999943	-0.15871060	79.06004000	30.74557000
12.69999942	0.00000000	79.06004000	30.78248000
12.89999941	0.00000000	79.06004000	30.37647000
13.09999940	0.00000000	79.06004000	30.04429000
13.29999939	0.00000000	79.06004000	30.00123000
13.49999937	0.00000000	79.06004000	30.00123000
13.69999936	0.00000000	79.06004000	30.00123000
13.89999935	0.00000000	79.06004000	30.00123000
14.09999934	-0.15871060	79.06004000	30.00123000
14.29999933	-0.15871060	79.06004000	30.00123000
14.49999932	-0.15871060	79.06004000	30.00123000
14.69999930	-0.15871060	79.06004000	30.00123000
14.89999929	0.00000000	79.06004000	30.00123000
15.09999928	0.00000000	79.06004000	30.00123000
15.29999927	0.00000000	79.06004000	30.00123000
15.49999926	0.00000000	79.06004000	30.00123000
15.69999924	0.00000000	79.06004000	30.00123000
15.89999923	0.00000000	79.06004000	30.00123000
16.09999922	0.00000000	79.01697000	30.00123000
16.29999921	0.00000000	78.72785000	30.00123000
16.49999920	-0.15871060	78.69094000	30.00123000
16.69999919	-0.15871060	79.47218000	30.00123000
16.89999917	-0.15871060	79.81052000	30.00123000
17.09999916	-0.15871060	80.26574000	30.00123000
17.29999915	0.00000000	80.59792000	30.00123000
17.49999914	0.00000000	80.64099000	30.00123000
17.69999913	0.00000000	80.59792000	30.00123000
17.89999911	0.00000000	80.17347000	30.00123000
18.09999910	0.00000000	78.96776000	30.00123000
18.29999909	0.00000000	77.10384000	30.00123000
18.49999908	-0.15871060	75.15379000	30.00123000
18.69999907	0.00000000	73.98499000	30.00123000
18.89999905	-0.15871060	73.20374000	30.00123000
19.09999904	-0.15871060	73.33292000	30.00123000
19.29999903	0.00000000	75.24606000	30.00123000
19.49999902	0.00000000	78.72785000	30.00123000
19.69999901	0.00000000	82.59719000	30.00123000
19.89999900	0.00000000	86.49728000	30.00123000
20.09999898	0.00000000	89.53001000	29.95817000
20.29999897	0.00000000	90.60039000	29.58292000
20.49999896	0.00000000	88.64419000	28.88779000
20.69999895	0.00000000	83.62450000	28.93085000
20.89999894	0.00000000	77.01156000	29.95201000
21.09999892	0.00000000	69.61736000	30.69636000
21.29999891	0.00000000	62.72760000	30.37647000
21.49999890	0.00000000	58.53838000	30.04429000
21.69999889	0.00000000	58.63066000	30.00123000
21.89999888	0.00000000	63.70570000	30.00123000
22.09999886	0.00000000	73.42519000	30.00123000
22.29999885	0.00000000	85.75910000	30.00123000
22.49999884	0.00000000	98.12991000	30.00123000
22.69999883	0.00000000	107.35110000	30.00123000
22.89999882	0.00000000	111.12200000	30.00123000
23.09999881	0.00000000	107.53570000	30.04429000
23.29999879	-0.15871060	96.27829000	30.41954000
23.49999878	0.00000000	79.66290000	31.15772000
23.69999877	0.00000000	61.14665000	31.57603000
23.89999876	0.00000000	45.37402000	31.95128000
24.09999875	0.00000000	36.52805000	32.27116000
24.29999873	0.00000000	36.94635000	31.48991000
24.49999872	0.00000000	47.09030000	30.00123000
24.69999871	0.00000000	65.28666000	28.42027000
24.89999870	0.00000000	88.03519000	26.88853000
25.09999869	0.00000000	109.58410000	25.72589000
25.29999867	0.00000000	124.28640000	25.35679000
25.49999866	-0.15871060	128.93700000	25.77510000
25.69999865	-0.15871060	122.65620000	27.39296000
25.89999864	0.00000000	105.99780000	30.51181000
26.09999863	0.00000000	82.08661000	34.73794000
26.29999862	0.00000000	57.04970000	38.92101000
26.49999860	0.00000000	36.94635000	41.61540000
26.69999859	0.00000000	26.48253000	42.03371000
26.89999858	0.00000000	27.64517000	40.40969000
27.09999857	0.00000000	40.02214000	36.46038000
27.29999856	0.00000000	61.28198000	29.86589000
27.49999854	0.00000000	86.31889000	22.19488000
27.69999853	0.00000000	109.11660000	15.27436000
27.89999852	0.00000000	124.23720000	11.09129000
28.09999851	0.00000000	128.89390000	11.13435000
28.29999850	0.00000000	122.37330000	15.78494000
28.49999848	0.00000000	106.18850000	24.32948000
28.69999847	0.00000000	85.00861000	35.15625000
28.89999846	0.00000000	63.65649000	46.35211000
29.09999845	0.00000000	46.62278000	55.18577000
29.29999844	0.00000000	36.94635000	59.36885000
29.49999843	0.00000000	36.90329000	57.41264000
29.69999841	0.00000000	46.06914000	49.24335000
29.89999840	0.00000000	61.10359000	36.46038000
30.09999839	0.00000000	78.54945000	21.03838000
30.29999838	0.00000000	94.83266000	6.81594400
30.49999837	0.00000000	106.84050000	-2.47293300
30.69999835	0.00000000	112.32780000	-5.16732200
30.89999834	0.00000000	110.42080000	-0.47982280
31.09999833	0.00000000	102.36830000	11.09129000
31.29999832	0.00000000	89.94832000	26.97465000
31.49999831	0.00000000	76.07652000	43.94069000
31.69999829	0.00000000	63.65649000	58.61835000
31.89999828	0.00000000	55.51181000	67.08292000
32.09999827	0.00000000	52.72514000	67.91338000
32.29999826	0.00000000	55.37647000	60.94365000
32.49999825	0.00000000	62.35236000	47.79158000
32.69999824	0.00000000	72.03493000	31.15772000
32.89999822	0.00000000	82.83096000	14.15477000
33.09999821	0.00000000	91.71383000	0.63976370
33.29999820	0.00000000	96.78887000	-6.74827700
33.49999819	0.00000000	97.61933000	-6.70521600
33.69999818	0.00000000	94.13754000	1.01501000
33.89999816	0.00000000	87.61687000	14.89911000
34.09999815	0.00000000	79.47834000	31.48991000
34.29999814	0.00000000	71.79503000	47.33021000
34.49999813	-0.15871060	66.35703000	58.90133000
34.69999812	0.00000000	64.44389000	63.59498000
34.89999810	0.00000000	66.30782000	60.94365000
35.09999809	0.00000000	71.29060000	52.02386000
35.29999808	0.00000000	77.38681000	38.54576000
35.49999807	0.00000000	82.83096000	23.54207000
35.69999806	0.00000000	86.31889000	11.17741000
35.89999805	0.00000000	87.52460000	3.78937000
36.09999803	0.00000000	86.31889000	2.63287400
36.29999802	0.00000000	82.87401000	8.02165300
36.49999801	-0.15871060	77.89738000	18.38090000
36.69999800	0.00000000	73.28986000	31.06545000
36.89999799	-0.15871060	70.17101000	42.59350000
37.09999797	0.00000000	69.05757000	49.93233000
37.29999796	-0.15871060	70.59547000	51.47023000
37.49999795	0.00000000	74.40945000	46.91191000
37.69999794	0.00000000	79.01697000	37.75836000
37.89999793	0.00000000	83.29231000	27.43602000
38.09999791	0.00000000	86.36810000	18.94070000
38.29999790	0.00000000	87.52460000	14.33317000
38.49999789	0.00000000	86.36810000	14.70842000
38.69999788	0.00000000	83.29231000	20.05413000
38.89999787	0.00000000	79.06004000	28.46333000
39.09999786	0.00000000	74.78469000	37.29700000
39.29999784	0.00000000	71.29060000	44.17446000
39.49999783	0.00000000	68.96530000	46.82579000
39.69999782	0.00000000	68.59006000	44.13140000
39.89999781	0.00000000	70.12794000	36.87869000
40.09999780	0.00000000	73.24680000	27.30684000
40.29999778	0.00000000	77.52214000	18.47318000
40.49999777	0.00000000	82.12967000	12.70915000
40.69999776	0.00000000	85.99286000	11.55266000
40.89999775	0.00000000	87.94906000	15.40969000
41.09999774	0.00000000	87.99212000	23.12377000
41.29999772	0.00000000	86.41116000	33.11393000
41.49999771	0.00000000	83.33538000	42.63656000
41.69999770	-0.15871060	79.43528000	48.40059000
41.89999769	0.00000000	75.56593000	48.86811000
42.09999768	0.00000000	72.08414000	44.68504000
42.29999767	0.00000000	70.17101000	37.38312000
42.49999765	0.00000000	70.08488000	28.93085000
42.69999764	0.00000000	71.29060000	21.58587000
42.89999763	0.00000000	73.62204000	16.94144000
43.09999762	0.00000000	77.06077000	15.73573000
43.29999761	0.00000000	80.08734000	18.05487000
43.49999759	0.00000000	81.71136000	22.98843000
43.69999758	0.00000000	82.17889000	29.16461000
43.89999757	0.00000000	82.17889000	34.55955000
44.09999756	0.00000000	81.75443000	38.45964000
44.29999755	0.00000000	80.68405000	39.99138000
44.49999753	-0.15871060	79.94585000	38.92101000
44.69999752	0.00000000	80.26574000	36.22662000
44.89999751	0.00000000	80.54871000	32.73868000
45.09999750	0.00000000	80.22269000	28.88779000
45.29999749	0.00000000	79.39222000	25.81816000
45.49999748	0.00000000	78.17421000	24.23720000
45.69999746	0.00000000	75.80585000	24.19414000
45.89999745	0.00000000	72.77928000	25.35064000
46.09999744	0.00000000	70.08488000	27.30684000
46.29999743	0.00000000	68.59006000	30.00123000
46.49999742	0.00000000	69.01452000	32.64640000
46.69999740	0.00000000	71.80117000	34.22736000
46.89999739	0.00000000	76.78395000	34.60261000
47.09999738	0.00000000	82.96629000	33.85211000
47.29999737	0.00000000	88.36737000	31.90822000
47.49999736	0.00000000	92.22440000	29.62598000
47.69999734	0.00000000	93.29478000	27.25763000
47.89999733	0.00000000	90.55118000	25.35064000
48.09999732	0.00000000	84.36269000	24.19414000
48.29999731	0.00000000	75.84891000	24.23720000
48.49999730	0.00000000	67.05216000	25.77510000
48.69999729	0.00000000	60.49458000	28.46333000
48.89999727	0.00000000	58.16314000	31.53297000
49.09999726	0.00000000	60.11934000	34.27042000
49.29999725	0.00000000	66.35703000	36.17741000
49.49999724	0.00000000	75.94118000	36.92175000
49.69999723	0.00000000	85.94365000	35.75910000
49.89999721	0.00000000	93.67002000	33.06471000
50.09999720	0.00000000	97.52706000	29.62598000
50.29999719	0.00000000	96.37057000	26.10113000
50.49999718	-0.15871060	90.60039000	23.40059000
50.69999717	0.00000000	81.75443000	21.49975000
50.89999715	-0.15871060	72.12721000	21.54281000
51.09999714	0.00000000	64.44389000	23.81890000
51.29999713	0.00000000	60.53764000	27.25763000
51.49999712	0.00000000	61.32504000	31.20078000
51.69999711	0.00000000	66.35703000	35.02091000
51.89999710	0.00000000	74.77853000	38.03519000
52.09999708	0.00000000	83.94438000	38.45349000
52.29999707	0.00000000	90.50811000	36.60187000
52.49999706	0.00000000	93.25172000	33.85211000
52.69999705	0.00000000	91.71383000	30.00123000
52.89999704	-0.15871060	86.36810000	26.19340000
53.09999702	0.00000000	79.06004000	23.81890000
53.29999701	0.00000000	71.75196000	22.65625000
53.49999700	0.00000000	66.35703000	23.07455000
53.69999699	0.00000000	64.44389000	25.35064000
53.89999698	0.00000000	66.35703000	28.37721000
54.09999696	0.00000000	71.70891000	31.11466000
54.29999695	0.00000000	78.59251000	33.02165000
54.49999694	0.00000000	84.73794000	33.80905000
54.69999693	0.00000000	88.59498000	33.06471000
54.89999692	0.00000000	89.01943000	31.57603000
55.09999691	0.00000000	86.36810000	30.04429000
55.29999689	-0.15871060	81.71136000	28.88779000
55.49999688	0.00000000	75.94118000	28.51255000
55.69999687	0.00000000	70.58932000	28.88779000
55.89999686	0.00000000	67.51968000	30.04429000
56.09999685	-0.15871060	67.47047000	31.53297000
56.29999683	0.00000000	70.17101000	32.64640000
56.49999682	0.00000000	74.78469000	32.64640000
56.69999681	0.00000000	80.13041000	31.44069000
56.89999680	0.00000000	84.36269000	29.16461000
57.09999679	0.00000000	86.31889000	26.10113000
57.29999677	0.00000000	85.99286000	23.86196000
57.49999676	0.00000000	83.71062000	23.07455000
57.69999675	0.00000000	80.59792000	24.28026000
57.89999674	0.00000000	77.10384000	27.34990000
58.09999673	0.00000000	73.66510000	31.61909000
58.29999672	0.00000000	71.75196000	36.22662000
58.49999670	-0.15871060	71.70891000	40.03444000
58.69999669	0.00000000	73.20374000	41.52312000
58.89999668	0.00000000	75.52288000	39.99138000
59.09999667	0.00000000	77.85432000	35.71604000
59.29999666	0.00000000	80.17347000	29.58292000
59.49999664	0.00000000	81.66830000	23.07455000
59.69999663	-0.15871060	81.71136000	18.47318000
59.89999662	0.00000000	80.59792000	16.84916000
60.09999661	-0.15871060	79.06004000	18.05487000
60.29999660	0.00000000	77.52214000	21.96112000
60.49999658	0.00000000	76.36565000	28.51255000
60.69999657	0.00000000	75.99039000	35.75910000
60.89999656	0.00000000	76.31644000	41.56618000
61.09999655	0.00000000	77.10384000	44.63582000
61.29999654	0.00000000	77.85432000	44.21752000
61.49999653	0.00000000	78.64173000	39.99138000
61.69999651	0.00000000	78.96776000	33.07087000
61.89999650	0.00000000	78.64173000	25.35064000
62.09999649	-0.15871060	77.85432000	18.43012000
62.29999648	0.00000000	77.10384000	14.20399000
62.49999647	0.00000000	76.31644000	13.77953000
62.69999645	0.00000000	75.94118000	16.89222000
62.89999644	0.00000000	75.94118000	23.07455000
63.09999643	0.00000000	76.36565000	31.11466000
63.29999642	0.00000000	77.47908000	38.41043000
63.49999641	0.00000000	78.64173000	43.10408000
63.69999639	-0.15871060	79.43528000	44.68504000
63.89999638	0.00000000	80.17347000	43.10408000
64.09999637	0.00000000	80.13041000	38.50270000
64.29999636	0.00000000	79.01697000	31.95128000
64.49999635	0.00000000	77.52214000	25.39985000
64.69999634	0.00000000	76.31644000	19.91880000
64.89999632	0.00000000	75.56593000	16.47392000
65.09999631	0.00000000	75.15379000	15.73573000
65.29999630	0.00000000	75.56593000	18.33784000
65.49999629	0.00000000	76.31644000	22.93307000
65.69999628	0.00000000	77.47908000	27.63287000
65.89999626	0.00000000	78.59251000	32.68946000
66.09999625	0.00000000	78.96776000	36.87869000
66.29999624	0.00000000	78.59251000	38.92101000
66.49999623	0.00000000	77.47908000	39.33932000
66.69999622	0.00000000	76.31644000	38.54576000
66.89999620	0.00000000	75.52288000	36.22662000
67.09999619	0.00000000	74.82775000	33.15699000
67.29999618	0.00000000	75.24606000	30.00123000
67.49999617	0.00000000	77.10384000	26.83932000
67.69999616	0.00000000	79.06004000	23.77584000
67.89999615	0.00000000	81.01624000	21.45669000
68.09999613	0.00000000	82.87401000	20.66314000
68.29999612	0.00000000	83.20619000	21.03838000
68.49999611	0.00000000	81.66830000	22.61319000
68.69999610	0.00000000	78.59251000	25.35064000
68.89999609	0.00000000	74.73548000	28.88779000
69.09999607	0.00000000	71.29060000	33.15699000
69.29999606	0.00000000	68.96530000	37.34006000
69.49999605	0.00000000	68.59006000	40.03444000
69.69999604	0.00000000	70.12794000	40.45890000
69.89999603	0.00000000	73.28986000	38.87795000
70.09999601	0.00000000	77.94660000	35.38385000
70.29999600	0.00000000	83.29231000	30.37647000
70.49999599	0.00000000	87.48154000	25.35679000
70.69999598	-0.15871060	89.06249000	21.08145000
70.89999597	0.00000000	87.89984000	18.43012000
71.09999596	0.00000000	84.45496000	18.43012000
71.29999594	-0.15871060	79.39222000	21.12451000
71.49999593	0.00000000	73.98499000	25.68282000
71.69999592	0.00000000	68.96530000	30.73942000
71.89999591	0.00000000	65.88951000	34.97785000
72.09999590	0.00000000	65.47121000	38.12746000
72.29999588	0.00000000	67.42741000	39.24704000
72.49999587	0.00000000	71.66584000	38.50270000
72.69999586	0.00000000	77.06077000	35.80217000
72.89999585	0.00000000	82.12967000	31.99434000
73.09999584	0.00000000	86.36810000	28.55561000
73.29999582	0.00000000	88.64419000	26.19340000
73.49999581	0.00000000	87.89984000	25.39985000
73.69999580	0.00000000	84.87327000	25.72589000
73.89999579	0.00000000	80.59792000	26.88853000
74.09999578	0.00000000	75.94118000	28.42027000
74.29999577	0.00000000	71.70891000	29.90895000
74.49999575	0.00000000	69.01452000	30.64714000
74.69999574	0.00000000	68.59006000	29.95201000
74.89999573	0.00000000	70.08488000	28.83858000
75.09999572	0.00000000	72.82849000	28.04503000
75.29999571	0.00000000	76.27337000	27.34990000
75.49999569	0.00000000	79.71210000	27.76821000
75.69999568	0.00000000	81.66830000	29.66904000
75.89999567	0.00000000	82.12967000	31.95128000
76.09999566	0.00000000	81.75443000	34.27042000
76.29999565	0.00000000	80.59792000	35.75910000
76.49999563	0.00000000	79.06004000	35.71604000
76.69999562	0.00000000	77.52214000	33.80905000
76.89999561	0.00000000	76.36565000	30.32726000
77.09999560	0.00000000	75.99039000	26.46407000
77.29999559	0.00000000	76.31644000	22.61319000
77.49999558	0.00000000	77.01156000	19.96186000
77.69999556	0.00000000	77.01156000	19.59276000
77.89999555	0.00000000	76.27337000	21.49975000
78.09999554	0.00000000	75.52288000	25.35679000
78.29999553	0.00000000	74.73548000	29.95817000
78.49999552	0.00000000	74.40945000	34.27042000
78.69999550	0.00000000	74.78469000	37.71530000
78.89999549	0.00000000	75.94118000	39.61614000
79.09999548	0.00000000	77.52214000	38.82874000
79.29999547	0.00000000	79.43528000	35.80217000
79.49999546	0.00000000	81.33611000	31.57603000
79.69999544	0.00000000	82.08661000	27.30684000
79.89999543	0.00000000	81.71136000	23.77584000
80.09999542	0.00000000	80.17347000	21.08145000
80.29999541	0.00000000	77.85432000	19.91880000
80.49999540	0.00000000	75.52288000	20.70620000
80.69999539	-0.15871060	73.15452000	22.98843000
80.89999537	0.00000000	71.33366000	26.46407000
81.09999536	0.00000000	70.97072000	29.90895000
81.29999535	0.00000000	72.87155000	32.69562000
81.49999534	0.00000000	75.85506000	34.64567000
81.69999533	0.00000000	78.59251000	35.85138000
81.89999531	0.00000000	80.54871000	36.17741000
82.09999530	-0.15871060	81.71136000	35.43307000
82.29999529	0.00000000	81.71136000	33.48302000
82.49999528	0.00000000	80.54871000	31.15772000
82.69999527	0.00000000	78.64173000	28.42027000
82.89999525	0.00000000	76.36565000	25.72589000
83.09999524	0.00000000	74.78469000	23.77584000
83.29999523	0.00000000	73.98499000	22.57013000
83.49999522	0.00000000	73.62204000	22.19488000
83.69999521	0.00000000	74.36023000	22.65625000
83.89999520	0.00000000	75.47981000	24.65551000
84.09999518	-0.15871060	76.27337000	28.46333000
84.29999517	0.00000000	77.06077000	32.64640000
84.49999516	0.00000000	77.43602000	35.80217000
84.69999515	0.00000000	77.43602000	37.75836000
84.89999514	0.00000000	77.10384000	38.45349000
85.09999512	0.00000000	76.73474000	36.92175000
85.29999511	0.00000000	77.10384000	33.43996000
85.49999510	0.00000000	77.43602000	29.20767000
85.69999509	0.00000000	77.47908000	24.56939000
85.89999508	0.00000000	77.47908000	21.12451000
86.09999506	0.00000000	77.43602000	19.54355000
86.29999505	0.00000000	77.06077000	19.96186000
86.49999504	-0.15871060	76.27337000	22.65625000
86.69999503	-0.15871060	75.52288000	26.88238000
86.89999502	0.00000000	74.73548000	31.53297000
87.09999501	0.00000000	74.40945000	35.75910000
87.29999499	0.00000000	74.78469000	38.45349000
87.49999498	0.00000000	75.89813000	38.82874000
87.69999497	0.00000000	77.06077000	36.87869000
87.89999496	0.00000000	77.85432000	32.64640000
88.09999495	0.00000000	78.64173000	27.30684000
88.29999493	0.00000000	79.01697000	22.69931000
88.49999492	0.00000000	79.01697000	20.01107000
88.69999491	0.00000000	78.59251000	19.96186000
88.89999490	0.00000000	77.43602000	22.28100000
89.09999489	0.00000000	75.94118000	26.14419000
89.29999487	0.00000000	74.82775000	31.15772000
89.49999486	0.00000000	74.78469000	35.71604000
89.69999485	0.00000000	75.47981000	38.45349000
89.89999484	0.00000000	75.89813000	38.82874000
90.09999483	0.00000000	76.31644000	36.92175000
90.29999482	0.00000000	77.06077000	33.02165000
90.49999480	0.00000000	77.43602000	28.04503000
90.69999479	0.00000000	77.47908000	23.07455000
90.89999478	0.00000000	77.47908000	20.05413000
91.09999477	0.00000000	77.47908000	20.01107000
91.29999476	0.00000000	77.47908000	22.65625000
91.49999474	0.00000000	77.47908000	26.88238000
91.69999473	0.00000000	77.47908000	31.53297000
91.89999472	0.00000000	77.47908000	35.75910000
92.09999471	0.00000000	77.47908000	38.41043000
92.29999470	0.00000000	77.47908000	38.41043000
92.49999468	0.00000000	77.43602000	35.75910000
92.69999467	0.00000000	77.01156000	31.53297000
92.89999466	0.00000000	75.89813000	26.88238000
93.09999465	0.00000000	74.73548000	22.69931000
93.29999464	0.00000000	73.94193000	20.38632000
93.49999463	0.00000000	73.20374000	20.74926000
93.69999461	0.00000000	73.28986000	23.03149000
93.89999460	0.00000000	74.78469000	26.93159000
94.09999459	0.00000000	77.10384000	31.48376000
94.29999458	0.00000000	79.39222000	35.29773000
94.49999457	0.00000000	81.33611000	36.87254000
94.69999455	0.00000000	82.08661000	36.13435000
94.89999454	0.00000000	81.71136000	33.80905000
95.09999453	0.00000000	80.13041000	29.95817000
95.29999452	0.00000000	77.43602000	25.77510000
95.49999451	0.00000000	74.36023000	22.70546000
95.69999449	0.00000000	71.62278000	21.54281000
95.89999448	0.00000000	69.70964000	22.70546000
96.09999447	0.00000000	68.96530000	25.68282000
96.29999446	0.00000000	70.17101000	29.16461000
96.49999445	0.00000000	73.20374000	31.86516000
96.69999444	0.00000000	77.06077000	33.85211000
96.89999442	0.00000000	80.54871000	34.55955000
97.09999441	0.00000000	83.29231000	33.80905000
97.29999440	0.00000000	84.78715000	31.53297000
97.49999439	0.00000000	84.41190000	28.88164000
97.69999438	0.00000000	82.08661000	26.93159000
97.89999436	0.00000000	78.64173000	25.77510000
98.09999435	0.00000000	74.73548000	25.72589000
98.29999434	0.00000000	71.29060000	26.46407000
98.49999433	0.00000000	68.92224000	27.25763000
98.69999432	0.00000000	68.17175000	28.42027000
98.89999430	0.00000000	68.92224000	29.53371000
99.09999429	0.00000000	71.24754000	29.95817000
99.29999428	0.00000000	74.36023000	30.00123000
99.49999427	0.00000000	77.85432000	30.00123000
99.69999426	0.00000000	81.33611000	30.04429000
99.89999425	0.00000000	83.62450000	30.41954000
100.09999423	-0.15871060	84.41190000	31.15772000
100.29999422	0.00000000	83.24926000	31.53297000
100.49999421	0.00000000	80.59792000	31.53297000
100.69999420	0.00000000	77.47908000	31.11466000
100.89999419	0.00000000	74.36023000	29.95201000
101.09999417	0.00000000	71.66584000	28.42027000
101.29999416	0.00000000	70.08488000	26.83932000
101.49999415	0.00000000	69.70964000	25.35064000
101.69999414	0.00000000	70.46014000	24.61245000
101.89999413	0.00000000	72.45324000	25.39985000
102.09999411	0.00000000	75.11072000	27.30684000
102.29999410	0.00000000	78.17421000	30.00123000
102.49999409	0.00000000	80.13041000	32.69562000
102.69999408	0.00000000	80.97318000	34.64567000
102.89999407	0.00000000	81.33611000	35.75910000
103.09999406	0.00000000	80.54871000	35.34079000
103.29999404	0.00000000	79.06004000	33.06471000
103.49999403	0.00000000	77.47908000	30.00123000
103.69999402	0.00000000	75.89813000	26.88853000
103.89999401	0.00000000	74.36023000	24.19414000
104.09999400	0.00000000	73.20374000	22.69931000
104.29999398	0.00000000	72.82849000	23.03149000
104.49999397	0.00000000	73.20374000	24.97539000
104.69999396	0.00000000	74.36023000	27.63287000
104.89999395	0.00000000	75.89813000	30.73942000
105.09999394	0.00000000	77.43602000	33.02165000
105.29999392	0.00000000	78.59251000	34.22736000
105.49999391	0.00000000	78.96776000	34.18430000
105.69999390	0.00000000	78.59251000	32.69562000
105.89999389	0.00000000	77.43602000	30.37647000
106.09999388	0.00000000	75.94118000	28.09424000
106.29999387	0.00000000	74.78469000	26.14419000
106.49999385	0.00000000	74.36023000	25.39985000
106.69999384	0.00000000	74.36023000	25.72589000
106.89999383	0.00000000	74.73548000	26.88853000
107.09999382	0.00000000	75.52288000	28.42027000
107.29999381	0.00000000	76.27337000	29.95201000
107.49999379	0.00000000	77.06077000	31.11466000
107.69999378	0.00000000	77.43602000	31.48376000
107.89999377	0.00000000	77.43602000	31.11466000
108.09999376	0.00000000	77.01156000	29.95201000
108.29999375	0.00000000	75.89813000	28.42027000
108.49999374	0.00000000	74.73548000	26.88853000
108.69999372	0.00000000	73.98499000	25.72589000
108.89999371	0.00000000	73.57283000	25.39985000
109.09999370	0.00000000	73.98499000	26.14419000
109.29999369	0.00000000	74.73548000	28.04503000
109.49999368	0.00000000	75.89813000	29.95201000
109.69999366	0.00000000	77.06077000	31.48991000
109.89999365	0.00000000	77.81126000	32.27116000
110.09999364	0.00000000	78.22342000	31.90822000
110.29999363	0.00000000	77.81126000	31.11466000
110.49999362	0.00000000	77.06077000	29.58292000
110.69999360	0.00000000	75.89813000	27.72515000
110.89999359	-0.15871060	74.78469000	26.88238000
111.09999358	0.00000000	74.36023000	26.42101000
111.29999357	0.00000000	74.31717000	25.72589000
111.49999356	0.00000000	74.31717000	25.72589000
111.69999355	0.00000000	74.36023000	26.46407000
111.89999353	0.00000000	74.73548000	27.25763000
112.09999352	-0.15871060	75.47981000	28.42027000
112.29999351	0.00000000	75.89813000	29.53371000
112.49999350	0.00000000	76.31644000	29.95817000
112.69999349	0.00000000	77.01156000	30.00123000
112.89999347	0.00000000	77.01156000	30.00123000
113.09999346	0.00000000	76.31644000	29.95817000
113.29999345	0.00000000	75.94118000	29.58292000
113.49999344	0.00000000	75.89813000	28.83858000
113.69999343	0.00000000	75.89813000	28.46333000
113.89999341	0.00000000	75.89813000	28.37721000
114.09999340	0.00000000	75.89813000	28.04503000
114.29999339	0.00000000	75.89813000	27.63287000
114.49999338	0.00000000	75.89813000	27.62672000
114.69999337	0.00000000	75.89813000	27.21457000
114.89999336	0.00000000	75.89813000	26.88238000
115.09999334	0.00000000	75.89813000	26.88238000
115.29999333	0.00000000	75.89813000	27.30684000
115.49999332	0.00000000	75.89813000	28.42027000
115.69999331	0.00000000	75.89813000	29.53371000
115.89999330	0.00000000	75.89813000	30.00123000
116.09999328	0.00000000	75.89813000	30.41954000
116.29999327	0.00000000	75.85506000	31.15772000
116.49999326	0.00000000	75.47981000	31.48376000
116.69999325	0.00000000	74.78469000	31.11466000
116.89999324	0.00000000	74.78469000	30.00123000
117.09999322	0.00000000	75.47981000	28.83858000
117.29999321	0.00000000	75.89813000	28.04503000
117.49999320	0.00000000	76.31644000	27.25763000
117.69999319	-0.15871060	77.06077000	26.88238000
117.89999318	0.00000000	77.43602000	26.83932000
118.09999317	0.00000000	77.43602000	26.88238000
118.29999315	0.00000000	77.06077000	27.30684000
118.49999314	0.00000000	76.27337000	28.46333000
118.69999313	0.00000000	75.52288000	29.95201000
118.89999312	0.00000000	74.69241000	31.11466000
119.09999311	0.00000000	73.94193000	31.48376000
119.29999309	0.00000000	73.20374000	31.15772000
119.49999308	0.00000000	73.24680000	30.41954000
119.69999307	0.00000000	74.36023000	30.00123000
119.89999306	0.00000000	75.85506000	29.58292000
120.09999305	0.00000000	77.06077000	28.79552000
120.29999303	0.00000000	77.85432000	28.04503000
120.49999302	0.00000000	78.59251000	27.30684000
120.69999301	0.00000000	78.59251000	27.30684000
120.89999300	0.00000000	77.85432000	28.00197000
121.09999299	0.00000000	77.06077000	28.37721000
121.29999298	0.00000000	75.85506000	28.37721000
121.49999296	0.00000000	74.36023000	28.08809000
121.69999295	0.00000000	73.20374000	28.05118000
121.89999294	0.00000000	72.77928000	28.78937000
122.09999293	0.00000000	72.77928000	28.79552000
122.29999292	0.00000000	73.20374000	28.88779000
122.49999290	-0.15871060	74.31717000	29.58292000
122.69999289	0.00000000	75.47981000	29.95817000
122.89999288	0.00000000	76.27337000	29.95817000
123.09999287	0.00000000	77.06077000	29.58292000
123.29999286	0.00000000	77.43602000	28.83858000
123.49999284	0.00000000	77.47908000	28.46333000
123.69999283	-0.15871060	77.43602000	28.42027000
123.89999282	0.00000000	77.06077000	28.37721000
124.09999281	0.00000000	76.27337000	28.00197000
124.29999280	0.00000000	75.52288000	27.30684000
124.49999279	0.00000000	74.73548000	27.30684000
124.69999277	0.00000000	74.31717000	28.00197000
124.89999276	0.00000000	73.89886000	28.37721000
125.09999275	0.00000000	73.15452000	28.46333000
125.29999274	0.00000000	72.82849000	28.83858000
125.49999273	0.00000000	73.20374000	29.58292000
125.69999271	0.00000000	74.36023000	29.95817000
125.89999270	0.00000000	75.85506000	30.00123000
126.09999269	0.00000000	77.01156000	29.95817000
126.29999268	0.00000000	77.43602000	29.58292000
126.49999267	0.00000000	77.47908000	28.83858000
126.69999265	0.00000000	77.43602000	28.46333000
126.89999264	0.00000000	77.01156000	28.37721000
127.09999263	0.00000000	75.89813000	28.00197000
127.29999262	0.00000000	74.73548000	27.30684000
127.49999261	0.00000000	73.94193000	27.30684000
127.69999260	0.00000000	73.15452000	28.00197000
127.89999258	0.00000000	72.82849000	28.37721000
128.09999257	0.00000000	73.20374000	28.46333000
128.29999256	0.00000000	74.36023000	28.83858000
128.49999255	0.00000000	75.85506000	29.58292000
128.69999254	0.00000000	77.01156000	29.95817000
128.89999252	0.00000000	77.43602000	29.95817000
129.09999251	0.00000000	77.43602000	29.58292000
129.29999250	0.00000000	77.06077000	28.83858000
129.49999249	0.00000000	76.27337000	28.42027000
129.69999248	0.00000000	75.47981000	28.00197000
129.89999246	0.00000000	74.31717000	27.30684000
130.09999245	0.00000000	73.24680000	27.30684000
130.29999244	0.00000000	73.20374000	28.00197000
130.49999243	-0.15871060	73.94193000	28.37721000
130.69999242	0.00000000	74.69241000	28.42027000
130.89999241	0.00000000	75.47981000	28.42027000
131.09999239	0.00000000	75.89813000	28.42027000
131.29999238	0.00000000	76.31644000	28.42027000
131.49999237	0.00000000	77.01156000	28.42027000
131.69999236	0.00000000	77.01156000	28.37721000
131.89999235	0.00000000	76.27337000	28.00197000
132.09999233	0.00000000	75.52288000	27.30684000
132.29999232	0.00000000	74.73548000	27.30684000
132.49999231	0.00000000	74.36023000	28.00197000
132.69999230	0.00000000	74.31717000	28.42027000
132.89999229	0.00000000	74.31717000	28.83858000
133.09999227	0.00000000	74.36023000	29.58292000
133.29999226	0.00000000	74.73548000	30.00123000
133.49999225	0.00000000	75.47981000	30.37647000
133.69999224	0.00000000	75.85506000	30.73942000
133.89999223	0.00000000	75.89813000	30.32726000
134.09999222	0.00000000	75.89813000	29.62598000
134.29999220	0.00000000	75.94118000	28.79552000
134.49999219	0.00000000	76.31644000	28.04503000
134.69999218	0.00000000	77.01156000	27.25763000
134.89999217	0.00000000	77.01156000	26.88238000
135.09999216	0.00000000	76.31644000	26.88238000
135.29999214	0.00000000	75.94118000	27.25763000
135.49999213	0.00000000	75.85506000	28.04503000
135.69999212	0.00000000	75.47981000	28.79552000
135.89999211	0.00000000	74.73548000	29.58292000
136.09999210	0.00000000	74.36023000	29.95817000
136.29999208	0.00000000	74.31717000	30.00123000
136.49999207	0.00000000	74.31717000	30.00123000
136.69999206	0.00000000	74.36023000	29.95817000
136.89999205	0.00000000	74.73548000	29.58292000
137.09999204	0.00000000	75.52288000	28.79552000
137.29999203	0.00000000	76.27337000	28.04503000
137.49999201	0.00000000	77.01156000	27.25763000
137.69999200	0.00000000	77.01156000	26.88238000
137.89999199	0.00000000	76.27337000	26.83932000
138.09999198	-0.15871060	75.52288000	26.83932000
138.29999197	0.00000000	74.73548000	26.88238000
138.49999195	0.00000000	74.36023000	27.25763000
138.69999194	0.00000000	74.31717000	28.04503000
138.89999193	-0.15871060	74.31717000	28.79552000
139.09999192	0.00000000	74.31717000	29.58292000
139.29999191	0.00000000	74.36023000	29.95817000
139.49999189	0.00000000	74.73548000	29.95817000
139.69999188	0.00000000	75.47981000	29.58292000
139.89999187	0.00000000	75.85506000	28.79552000
140.09999186	0.00000000	75.89813000	28.04503000
140.29999185	0.00000000	75.85506000	27.21457000
140.49999184	0.00000000	75.47981000	26.51329000
140.69999182	0.00000000	74.73548000	26.10113000
140.89999181	0.00000000	74.36023000	26.46407000
141.09999180	0.00000000	74.31717000	26.83932000
141.29999179	0.00000000	74.31717000	27.25763000
141.49999178	0.00000000	74.31717000	28.04503000
141.69999176	0.00000000	74.31717000	28.79552000
141.89999175	0.00000000	74.36023000	29.58292000
142.09999174	0.00000000	74.73548000	29.95817000
142.29999173	0.00000000	75.47981000	29.95817000
142.49999172	0.00000000	75.80585000	29.58292000
142.69999170	0.00000000	75.47981000	28.79552000
142.89999169	0.00000000	74.73548000	28.04503000
143.09999168	0.00000000	74.36023000	27.25763000
143.29999167	0.00000000	74.31717000	26.88238000
143.49999166	0.00000000	74.31717000	26.83932000
143.69999165	0.00000000	74.31717000	26.83932000
143.89999163	0.00000000	74.36023000	26.88238000
144.09999162	0.00000000	74.73548000	27.30684000
144.29999161	0.00000000	75.47981000	28.42027000
144.49999160	0.00000000	75.85506000	29.53371000
144.69999159	0.00000000	75.85506000	29.95817000
144.89999157	0.00000000	75.52288000	30.00123000
145.09999156	0.00000000	75.11072000	29.95817000
145.29999155	0.00000000	75.10458000	29.58292000
145.49999154	0.00000000	74.69241000	28.79552000
145.69999153	0.00000000	74.36023000	28.04503000
145.89999151	0.00000000	74.31717000	27.25763000
146.09999150	0.00000000	74.31717000	26.88238000
146.29999149	0.00000000	74.36023000	26.83932000
146.49999148	-0.15871060	74.73548000	26.88238000
146.69999147	0.00000000	75.47981000	27.25763000
146.89999146	0.00000000	75.85506000	28.00197000
147.09999144	0.00000000	75.89813000	28.42027000
147.29999143	0.00000000	75.85506000	28.83858000
147.49999142	0.00000000	75.47981000	29.58292000
147.69999141	0.00000000	74.73548000	29.90895000
147.89999140	0.00000000	74.36023000	29.58292000
148.09999138	0.00000000	74.31717000	28.83858000
148.29999137	0.00000000	74.31717000	28.46333000
148.49999136	0.00000000	74.31717000	28.42027000
148.69999135	0.00000000	74.36023000	28.37721000
148.89999134	0.00000000	74.69241000	28.00197000
149.09999132	0.00000000	75.10458000	27.30684000
149.29999131	0.00000000	75.11072000	27.30684000
149.49999130	0.00000000	75.52288000	28.00197000
149.69999129	0.00000000	75.85506000	28.37721000
149.89999128	0.00000000	75.89813000	28.42027000
150.09999127	0.00000000	75.85506000	28.42027000
150.29999125	0.00000000	75.47981000	28.46333000
150.49999124	0.00000000	74.73548000	28.79552000
150.69999123	0.00000000	74.36023000	29.16461000
150.89999122	0.00000000	74.27411000	28.79552000
151.09999121	0.00000000	73.98499000	28.46333000
151.29999119	0.00000000	73.94807000	28.42027000
151.49999118	0.00000000	74.68626000	28.42027000
151.69999117	0.00000000	74.69241000	28.42027000
151.89999116	0.00000000	74.78469000	28.42027000
152.09999115	0.00000000	75.47981000	28.42027000
152.29999113	0.00000000	75.85506000	28.42027000
152.49999112	0.00000000	75.89813000	28.42027000
152.69999111	0.00000000	75.89813000	28.42027000
152.89999110	0.00000000	75.85506000	28.42027000
153.09999109	0.00000000	75.47981000	28.42027000
153.29999108	0.00000000	74.73548000	28.42027000
153.49999106	0.00000000	74.31717000	28.42027000
153.69999105	0.00000000	73.94193000	28.42027000
153.89999104	0.00000000	73.57283000	28.42027000
154.09999103	0.00000000	73.94193000	28.42027000
154.29999102	0.00000000	74.27411000	28.42027000
154.49999100	0.00000000	74.31717000	28.42027000
154.69999099	0.00000000	74.36023000	28.37721000
154.89999098	0.00000000	74.73548000	28.00197000
155.09999097	0.00000000	75.47981000	27.30684000
155.29999096	0.00000000	75.85506000	27.25763000
155.49999094	0.00000000	75.89813000	27.62672000
155.69999093	0.00000000	75.89813000	27.63287000
155.89999092	0.00000000	75.85506000	28.04503000
156.09999091	0.00000000	75.47981000	28.37721000
156.29999090	0.00000000	74.73548000	28.42027000
156.49999089	0.00000000	74.31717000	28.42027000
156.69999087	-0.15871060	73.89886000	28.46333000
156.89999086	0.00000000	73.20374000	28.79552000
157.09999085	0.00000000	73.20374000	29.16461000
157.29999084	0.00000000	73.89886000	28.79552000
157.49999083	0.00000000	74.27411000	28.42027000
157.69999081	0.00000000	74.36023000	28.00197000
157.89999080	0.00000000	74.73548000	27.25763000
158.09999079	0.00000000	75.47981000	26.88238000
158.29999078	0.00000000	75.85506000	26.88238000
158.49999077	0.00000000	75.89813000	27.25763000
158.69999075	0.00000000	75.85506000	28.00197000
158.89999074	0.00000000	75.47981000	28.37721000
159.09999073	0.00000000	74.73548000	28.46333000
159.29999072	0.00000000	74.36023000	28.79552000
159.49999071	0.00000000	74.31717000	29.16461000
159.69999070	0.00000000	74.31717000	28.83858000
159.89999068	0.00000000	74.31717000	28.83858000
160.09999067	0.00000000	74.31717000	29.16461000
160.29999066	0.00000000	74.31717000	28.79552000
160.49999065	0.00000000	74.31717000	28.42027000
160.69999064	0.00000000	74.31717000	28.00197000
160.89999062	0.00000000	74.31717000	27.30684000
161.09999061	0.00000000	74.31717000	27.30684000
161.29999060	0.00000000	74.36023000	28.00197000
161.49999059	0.00000000	74.69241000	28.37721000
161.69999058	0.00000000	75.06151000	28.42027000
161.89999056	0.00000000	74.73548000	28.42027000
162.09999055	0.00000000	74.73548000	28.42027000
162.29999054	0.00000000	75.06151000	28.42027000
162.49999053	0.00000000	74.69241000	28.42027000
162.69999052	0.00000000	74.31717000	28.42027000
162.89999051	0.00000000	73.94193000	28.42027000
163.09999049	0.00000000	73.57283000	28.42027000
163.29999048	0.00000000	73.94193000	28.42027000
163.49999047	0.00000000	74.27411000	28.42027000
163.69999046	0.00000000	74.31717000	28.42027000
163.89999045	0.00000000	74.31717000	28.42027000
164.09999043	0.00000000	74.36023000	28.42027000
164.29999042	0.00000000	74.73548000	28.42027000
164.49999041	0.00000000	75.47981000	28.42027000
164.69999040	0.00000000	75.85506000	28.42027000
164.89999039	0.00000000	75.85506000	28.42027000
165.09999037	0.00000000	75.47981000	28.42027000
165.29999036	0.00000000	74.73548000	28.42027000
165.49999035	0.00000000	74.36023000	28.42027000
165.69999034	0.00000000	74.31717000	28.42027000
165.89999033	0.00000000	74.31717000	28.42027000
166.09999032	0.00000000	74.31717000	28.42027000
166.29999030	0.00000000	74.31717000	28.42027000
166.49999029	0.00000000	74.31717000	28.42027000
166.69999028	0.00000000	74.31717000	28.42027000
166.89999027	0.00000000	74.31717000	28.42027000
167.09999026	0.00000000	74.31717000	28.37721000
167.29999024	-0.15871060	74.31717000	28.04503000
167.49999023	0.00000000	74.36023000	27.67593000
167.69999022	0.00000000	74.69241000	28.04503000
167.89999021	0.00000000	75.06151000	28.37721000
168.09999020	0.00000000	74.69241000	28.42027000
168.29999018	0.00000000	74.36023000	28.42027000
168.49999017	0.00000000	74.31717000	28.42027000
168.69999016	0.00000000	74.31717000	28.42027000
168.89999015	0.00000000	74.31717000	28.42027000
169.09999014	0.00000000	74.31717000	28.42027000
169.29999013	0.00000000	74.31717000	28.42027000
169.49999011	0.00000000	74.31717000	28.42027000
169.69999010	0.00000000	74.31717000	28.37721000
169.89999009	0.00000000	74.31717000	28.04503000
170.09999008	0.00000000	74.31717000	27.63287000
170.29999007	0.00000000	74.31717000	27.62672000
170.49999005	-0.15871060	74.31717000	27.25763000
170.69999004	0.00000000	74.31717000	27.30684000
170.89999003	0.00000000	74.31717000	28.00197000
171.09999002	0.00000000	74.31717000	28.32800000
171.29999001	0.00000000	74.31717000	28.00197000
171.49998999	0.00000000	74.31717000	27.30684000
171.69998998	0.00000000	74.31717000	27.30684000
171.89998997	0.00000000	74.31717000	27.95275000
172.09998996	0.00000000	74.31717000	28.00197000
172.29998995	0.00000000	74.31717000	27.63287000
172.49998994	0.00000000	74.31717000	27.62672000
172.69998992	0.00000000	74.31717000	27.25763000
172.89998991	0.00000000	74.31717000	27.30684000
173.09998990	0.00000000	74.31717000	28.00197000
173.29998989	-0.15871060	74.31717000	28.37721000
173.49998988	0.00000000	74.31717000	28.37721000
173.69998986	0.00000000	74.31717000	28.04503000
173.89998985	0.00000000	74.31717000	27.67593000
174.09998984	-0.15871060	74.31717000	28.04503000
174.29998983	0.00000000	74.31717000	28.32800000
174.49998982	0.00000000	74.31717000	28.00197000
174.69998980	0.00000000	74.31717000	27.30684000
174.89998979	0.00000000	74.31717000	27.30684000
175.09998978	0.00000000	74.31717000	28.00197000
175.29998977	0.00000000	74.31717000	28.37721000
175.49998976	0.00000000	74.31717000	28.42027000
175.69998975	0.00000000	74.31717000	28.42027000
175.89998973	0.00000000	74.31717000	28.42027000
176.09998972	0.00000000	74.31717000	28.42027000
176.29998971	0.00000000	74.31717000	28.37721000
176.49998970	0.00000000	74.31717000	28.00197000
176.69998969	0.00000000	74.31717000	27.30684000
176.89998967	0.00000000	74.27411000	27.25763000
177.09998966	0.00000000	73.94193000	27.62672000
177.29998965	0.00000000	73.57283000	27.58981000
177.49998964	0.00000000	73.94193000	27.66978000
177.69998963	0.00000000	74.27411000	27.58981000
177.89998961	0.00000000	74.27411000	27.62672000
178.09998960	0.00000000	73.94193000	27.25763000
178.29998959	0.00000000	73.57283000	27.30684000
178.49998958	0.00000000	73.94193000	28.00197000
178.69998957	0.00000000	74.27411000	28.37721000
178.89998956	0.00000000	74.31717000	28.42027000
179.09998954	0.00000000	74.31717000	28.42027000
179.29998953	0.00000000	74.31717000	28.42027000
179.49998952	0.00000000	74.31717000	28.42027000
179.69998951	-0.15871060	74.31717000	28.37721000
179.89998950	0.00000000	74.31717000	28.00197000
180.09998948	0.00000000	74.31717000	27.30684000
180.29998947	0.00000000	74.31717000	27.30684000
180.49998946	0.00000000	74.31717000	28.00197000
180.69998945	0.00000000	74.31717000	28.37721000
180.89998944	0.00000000	74.31717000	28.42027000
181.09998942	0.00000000	74.31717000	28.42027000
181.29998941	0.00000000	74.31717000	28.42027000
181.49998940	0.00000000	74.31717000	28.42027000
181.69998939	0.00000000	74.31717000	28.42027000
181.89998938	0.00000000	74.31717000	28.42027000
182.09998937	0.00000000	74.31717000	28.42027000
182.29998935	0.00000000	74.31717000	28.42027000
182.49998934	0.00000000	74.31717000	28.42027000
182.69998933	0.00000000	74.31717000	28.42027000
182.89998932	0.00000000	74.31717000	28.42027000
183.09998931	0.00000000	74.31717000	28.37721000
183.29998929	0.00000000	74.31717000	28.00197000
183.49998928	0.00000000	74.31717000	27.30684000
183.69998927	0.00000000	74.31717000	27.30684000
183.89998926	0.00000000	74.31717000	27.95275000
184.09998925	0.00000000	74.27411000	28.00197000
184.29998923	0.00000000	73.94193000	27.67593000
184.49998922	0.00000000	73.57283000	28.04503000
184.69998921	0.00000000	73.94193000	28.37721000
184.89998920	0.00000000	74.27411000	28.37721000
185.09998919	0.00000000	74.31717000	28.04503000
185.29998918	0.00000000	74.31717000	27.63287000
185.49998916	0.00000000	74.36023000	27.66978000
185.69998915	0.00000000	74.64935000	27.58981000
185.89998914	0.00000000	74.68626000	27.62672000
186.09998913	0.00000000	73.94807000	27.21457000
186.29998912	0.00000000	73.94193000	26.88238000
186.49998910	0.00000000	73.84965000	26.83932000
186.69998909	0.00000000	73.15452000	26.88238000
186.89998908	0.00000000	72.77928000	27.25763000
187.09998907	0.00000000	72.73621000	28.00197000
187.29998906	0.00000000	72.73621000	28.37721000
187.49998904	0.00000000	72.77928000	28.42027000
187.69998903	0.00000000	73.15452000	28.42027000
187.89998902	0.00000000	73.89886000	28.42027000
188.09998901	0.00000000	74.27411000	28.37721000
188.29998900	0.00000000	74.31717000	28.00197000
188.49998899	0.00000000	74.31717000	27.25763000
188.69998897	0.00000000	74.31717000	26.88238000
188.89998896	0.00000000	74.31717000	26.83932000
189.09998895	0.00000000	74.27411000	26.83932000
189.29998894	0.00000000	73.94193000	26.83932000
189.49998893	0.00000000	73.52977000	26.88238000
189.69998891	0.00000000	73.52361000	27.25763000
189.89998890	0.00000000	73.11147000	28.00197000
190.09998889	-0.15871060	72.77928000	28.37721000
190.29998888	0.00000000	72.73621000	28.42027000
190.49998887	0.00000000	72.77928000	28.42027000
190.69998885	0.00000000	73.15452000	28.42027000
190.89998884	0.00000000	73.89886000	28.42027000
191.09998883	0.00000000	74.27411000	28.37721000
191.29998882	0.00000000	74.31717000	28.04503000
191.49998881	0.00000000	74.31717000	27.63287000
191.69998880	0.00000000	74.31717000	27.66978000
191.89998878	0.00000000	74.27411000	27.63287000
192.09998877	0.00000000	73.94193000	28.00197000
192.29998876	0.00000000	73.52977000	27.95275000
192.49998875	0.00000000	73.52361000	27.25763000
192.69998874	0.00000000	73.11147000	26.93159000
192.89998872	0.00000000	72.77928000	27.25763000
193.09998871	0.00000000	72.77928000	28.00197000
193.29998870	0.00000000	73.11147000	28.37721000
193.49998869	0.00000000	73.52361000	28.42027000
193.69998868	0.00000000	73.52977000	28.42027000
193.89998866	0.00000000	73.94193000	28.42027000
194.09998865	0.00000000	74.27411000	28.42027000
194.29998864	0.00000000	74.31717000	28.42027000
194.49998863	0.00000000	74.31717000	28.37721000
194.69998862	0.00000000	74.27411000	28.00197000
194.89998861	0.00000000	73.89886000	27.30684000
195.09998859	0.00000000	73.15452000	27.25763000
195.29998858	0.00000000	72.77928000	27.58366000
195.49998857	0.00000000	72.73621000	27.21457000
195.69998856	0.00000000	72.73621000	26.88238000
195.89998855	0.00000000	72.73621000	26.83932000
196.09998853	0.00000000	72.73621000	26.83932000
